flight,seq,uid,timestamp,wind_speed,wind_angle,battery_voltage,battery_current,position_x,position_y,position_z,altitude,orientation_x,orientation_y,orientation_z,orientation_w,velocity_x,velocity_y,velocity_z,angular_x,angular_y,angular_z,linear_acceleration_x,linear_acceleration_y,linear_acceleration_z,payload,yaw,IDLE_HOVER,ASCEND,TURN,HMSL,DESCEND
3,1361,a3d9,1674047220,6.150000095,116,44004,18137,33.41485214,35.14552689,39.27773285,200,-0.026722021,0.029013896,0.190273836,0.980938315,4.615133762,1.744400501,-0.050514232,0.015761929,-0.021511639,0.021974696,0.148400813,0.147868216,-0.028468132,0.470999986,0.381790497,0,0,0,1,0
3,1362,a3d9,1674047220,6.150000095,116,44004,18137,33.41485596,35.1455307,39.27335358,200,-0.025433818,0.028688112,0.190241441,0.980988443,4.632883072,1.754826188,-0.049969412,-0.001097914,-0.026997579,0.031603452,0.151182801,0.101694234,-0.094047546,0.470999986,0.381810817,0,0,0,1,0
3,1363,a3d9,1674047220,6.150000095,116,44002,18137,33.41486359,35.1455307,39.26412964,200,-0.023875169,0.027723335,0.190494731,0.981006205,4.651686668,1.76132369,-0.046221908,0.001213674,-0.016478691,-0.004931969,0.126877531,0.078193888,-0.086764336,0.470999986,0.382436572,0,0,0,1,0
3,1364,a3d9,1674047221,6.150000095,116,44002,18137,33.4148674,35.14553452,39.25861359,200,-0.023483982,0.026542986,0.190815032,0.980986059,4.669812679,1.768872857,-0.041689821,-0.01150554,0.03365339,-0.020767603,0.129492849,0.063254878,0.095608711,0.470999986,0.383128671,0,0,0,1,0
3,1365,a3d9,1674047221,6.150000095,116,44021,18273,33.41487503,35.14553452,39.25045013,200,-0.025015051,0.024969714,0.191456944,0.980864406,4.680948257,1.773548484,-0.040093314,-0.018588645,0.004968945,-0.043031402,0.086999044,0.03905689,0.072301865,0.470999986,0.384376201,0,0,0,1,0
3,1366,a3d9,1674047221,6.150000095,116,44021,18273,33.41487885,35.14553452,39.24547577,200,-0.026269807,0.024193516,0.192079321,0.980729401,4.69018507,1.784759164,-0.04083129,0.001307456,-0.042320777,0.04713339,0.066240609,0.117050126,0.136695862,0.470999986,0.3855921,0,0,0,1,0
3,1367,a3d9,1674047221,6.150000095,116,44033,18273,33.41488266,35.14553833,39.23503113,200,-0.026676159,0.022360282,0.193868548,0.980409801,4.691695213,1.803375006,-0.037845004,0.020613287,-0.037320666,0.076902479,-0.028377632,0.200128019,0.024964333,0.470999986,0.389262143,0,0,0,1,0
3,1368,a3d9,1674047221,6.150000095,116,44033,18273,33.41489029,35.14553833,39.22896576,200,-0.024723047,0.023237538,0.194394201,0.980336487,4.691111565,1.823688507,-0.032729007,0.044902682,0.011578759,0.043014437,-0.051129624,0.186776102,-0.112518311,0.470999986,0.390417081,0,0,0,1,0
3,1369,a3d9,1674047221,4.519999981,200,44020,18273,33.4148941,35.14554214,39.22601318,200,-0.021996746,0.024638798,0.194977105,0.980251491,4.694274426,1.843065381,-0.030017018,0.064082615,0.019682426,-0.045966838,-0.015136589,0.16715838,0.110609055,0.470999986,0.39172942,0,0,0,1,0
3,1370,a3d9,1674047221,4.519999981,200,44020,18273,33.41489792,35.14554214,39.22322083,200,-0.019942721,0.024898948,0.195397079,0.980205238,4.702134132,1.859864235,-0.026157904,0.033101719,-0.029587708,-0.042243905,0.0432408,0.116127253,0.12104702,0.470999986,0.392694238,0,0,0,1,0
3,1371,a3d9,1674047221,4.519999981,200,44042,18273,33.41490555,35.14554596,39.2157135,200,-0.01733803,0.025187556,0.195204526,0.980285764,4.709839821,1.872258782,-0.022836866,0.060851377,0.033944067,0.011985161,0.078177333,0.083586007,-0.019948959,0.470999986,0.392438218,0,0,0,1,0
3,1372,a3d9,1674047221,4.519999981,200,44042,18273,33.41490936,35.14554596,39.2126236,200,-0.014792936,0.025475452,0.194610268,0.980438173,4.721797943,1.879786849,-0.022937493,0.059487611,-0.003382772,0.015920842,0.092083782,0.016118541,0.027934074,0.470999986,0.391359402,0,0,0,1,0
3,1373,a3d9,1674047221,4.519999981,200,44055,18273,33.41491699,35.14554977,39.2074585,200,-0.013008313,0.024668809,0.194289327,0.980547726,4.734173298,1.879195452,-0.027948841,-0.021101685,-0.08158835,0.032871135,0.051539358,-0.010023958,-0.012359619,0.470999986,0.390793577,0,0,0,1,0
3,1374,a3d9,1674047222,4.519999981,200,44055,18273,33.41492081,35.14554977,39.2047348,200,-0.014178067,0.023683585,0.193662792,0.98067975,4.742396832,1.872353315,-0.029787635,-0.03693153,-0.049972348,-0.036111169,0.043704771,-0.100905418,-0.096645355,0.470999986,0.389453988,0,0,0,1,0
3,1375,a3d9,1674047222,4.519999981,200,44050,18420,33.41492462,35.14555359,39.19779968,200,-0.017853215,0.02313849,0.193272039,0.980709851,4.74203825,1.873153806,-0.034019772,-0.026550589,0.05268342,-0.036007345,-0.044699907,-0.023168493,0.122876167,0.470999986,0.388477166,0,0,0,1,0
3,1376,a3d9,1674047222,4.519999981,200,44050,18420,33.41492844,35.14555359,39.19409943,200,-0.018512623,0.024827732,0.193008333,0.980708241,4.742780685,1.877351761,-0.031284206,0.005878738,0.040400647,-0.007657949,-0.002357495,-0.007551759,0.102753639,0.470999986,0.387895073,0,0,0,1,0
3,1377,a3d9,1674047222,4.519999981,200,44065,18420,33.41493607,35.1455574,39.19229126,200,-0.016723534,0.027509669,0.192689791,0.980731428,4.750063419,1.882755637,-0.030937571,0.07570637,0.000369807,-0.007309677,0.056442648,0.024628814,-0.0359869,0.470999986,0.38733639,0,0,0,1,0
3,1378,a3d9,1674047222,4.519999981,200,44065,18420,33.41493988,35.1455574,39.19034576,200,-0.015355165,0.027218116,0.192110851,0.980875552,4.76575613,1.882289052,-0.032571208,0.017612396,-0.048438016,-0.021709336,0.130124703,-0.028378189,-0.021591187,0.470999986,0.386231926,0,0,0,1,0
3,1379,a3d9,1674047222,13.42000008,253,44067,18420,33.41494751,35.1455574,39.18995667,200,-0.016834658,0.024303861,0.192094073,0.980931103,4.778186798,1.876830816,-0.029650752,-0.063520223,-0.036778692,0.02732409,0.061658658,-0.079934925,-0.0974617,0.470999986,0.38611935,0,0,0,1,0
3,1380,a3d9,1674047222,13.42000008,253,44067,18420,33.41495132,35.14556122,39.18757629,200,-0.019445369,0.02217767,0.192354977,0.980882049,4.779811382,1.877067447,-0.025275614,-0.035439603,0.0052299,-0.019626701,-0.041607302,-0.031658906,0.062257767,0.470999986,0.386536739,0,0,0,1,0
3,1381,a3d9,1674047222,13.42000008,253,44091,18420,33.41495895,35.14556122,39.18160248,200,-0.020580955,0.021462157,0.193006784,0.980746746,4.776528358,1.882312179,-0.019343313,-0.021281976,-0.009123994,-0.068284981,-0.06174542,-0.028015293,0.26130867,0.470999986,0.387820788,0,0,0,1,0
3,1382,a3d9,1674047222,13.42000008,253,44091,18420,33.41496277,35.14556503,39.17867279,200,-0.020732177,0.021575373,0.193099022,0.980722904,4.770211697,1.893141985,-0.014625121,0.045430273,0.008747101,0.034798585,-0.069427744,0.067936912,0.039885521,0.470999986,0.388000246,0,0,0,1,0
3,1383,a3d9,1674047222,13.42000008,253,44098,18420,33.41496658,35.14556503,39.18244171,200,-0.018913046,0.022737551,0.193539813,0.980646551,4.766372681,1.89693892,-0.012522884,-0.001871073,0.033398811,0.088348903,-0.01379802,-0.039539877,0.073690414,0.470999986,0.388974419,0,0,0,1,0
3,1384,a3d9,1674047223,13.42000008,253,44098,18420,33.4149704,35.14556885,39.18302155,200,-0.018711798,0.022512566,0.193834618,0.980597377,4.769382477,1.895140409,-0.01293114,-0.010213307,-0.041862998,0.003918143,-0.000175922,-0.047113296,0.011809349,0.470999986,0.389587752,0,0,0,1,0
3,1385,a3d9,1674047223,13.42000008,253,44112,18472,33.41497803,35.14556885,39.18527985,200,-0.020826554,0.021250283,0.194755778,0.980400383,4.76936245,1.891232133,-0.017855054,-0.048894968,-0.052528791,-0.013577965,-0.040841624,-0.018601378,-0.081737518,0.470999986,0.391380695,0,0,0,1,0
3,1386,a3d9,1674047223,13.42000008,253,44112,18472,33.41498566,35.14557266,39.18301392,200,-0.022904076,0.020176524,0.195548892,0.980218828,4.762787819,1.897548795,-0.019117057,-0.05553427,0.019415557,0.010513543,-0.081126399,0.028370319,0.016304016,0.470999986,0.392920498,0,0,0,1,0
3,1387,a3d9,1674047223,13.42000008,253,44110,18472,33.41498947,35.14557266,39.19046021,200,-0.023859078,0.021149471,0.196226656,0.980040073,4.75300312,1.906021595,-0.018390007,0.013481393,0.025832292,-0.015443206,-0.108001411,0.048110448,0.015922546,0.470999986,0.394240494,0,0,0,1,0
3,1388,a3d9,1674047223,13.42000008,253,44110,18472,33.41499329,35.14557266,39.18896484,200,-0.020849269,0.00888147,0.19715479,0.980110407,4.755050182,1.919288874,-0.011465297,0.037602421,-0.413687766,-0.001882102,0.026043098,0.126956254,-0.117259979,0.470999986,0.396533836,0,0,1,1,0
3,1389,a3d9,1674047223,10.15999985,251,44113,18472,33.41500092,35.14557648,39.1922226,200,-0.015716219,-0.01908681,0.196242809,0.980243564,4.721885204,1.908596516,-0.008529656,0.008726505,-0.902857006,-0.206269339,-0.470948517,-0.248638839,-0.140570641,0.470999986,0.395771046,0,0,1,1,0
3,1390,a3d9,1674047223,10.15999985,251,44113,18472,33.41500473,35.14557648,39.19313049,200,0.007876121,-0.08935754,0.165656671,0.982095242,4.649958134,1.879140496,0.027865261,0.341536731,-1.824437261,-1.087437153,-1.197782993,-0.413428038,0.115526199,0.470999986,0.33549741,0,0,1,1,0
3,1627,a3d9,1674047247,7.340000153,128,43923,18120,33.41485214,35.14553833,39.38169098,200,-0.02867778,0.02980384,0.198731363,0.979180872,4.628259182,1.817380786,-0.066186428,-0.055169493,-0.088757634,0.079025716,0.173204005,0.14525795,-0.183653831,0.470999986,0.398921659,0,0,0,1,0
3,1628,a3d9,1674047247,7.340000153,128,43923,18120,33.41485596,35.14553833,39.37541199,200,-0.029443154,0.028388625,0.199435815,0.979056954,4.643957615,1.829440355,-0.066637665,-0.027824108,-0.034344107,0.047457859,0.140154809,0.184823692,-0.095845222,0.470999986,0.400339253,0,0,0,1,0
3,1629,a3d9,1674047247,7.409999847,141,43931,18120,33.41485977,35.14554214,39.37657166,200,-0.028380668,0.02751215,0.200353697,0.978925943,4.659471989,1.850820899,-0.070619747,0.012141474,0.011618312,-0.025651745,0.074531987,0.170402125,-0.005589485,0.470999986,0.402299497,0,0,0,1,0
3,1630,a3d9,1674047247,7.409999847,141,43931,18120,33.41486359,35.14554214,39.37129974,200,-0.027286891,0.027179269,0.201002061,0.978833437,4.668751717,1.86396873,-0.074685872,0.008566059,-0.034851838,-0.018068882,0.088230073,0.141837046,-0.008932114,0.470999986,0.403697831,0,0,0,1,0
3,1631,a3d9,1674047247,7.409999847,141,43920,18120,33.41487122,35.14554214,39.36730957,200,-0.026200272,0.026777998,0.201984674,0.978671908,4.683874607,1.88227129,-0.076263621,0.005932488,0.027554158,-0.042973358,0.092968948,0.099221706,0.064505577,0.470999986,0.4057787,0,0,0,1,0
3,1632,a3d9,1674047247,7.409999847,141,43920,18120,33.41487503,35.14554596,39.36049652,200,-0.025789851,0.025971327,0.202492729,0.978599548,4.69640398,1.89126277,-0.077300377,0.048891529,0.031504005,0.03546286,0.083486989,0.074286006,-0.006532669,0.470999986,0.406854547,0,0,0,1,0
3,1633,a3d9,1674047247,7.409999847,141,43928,18120,33.41488266,35.14554596,39.35414886,200,-0.025682271,0.024582757,0.203386635,0.978452861,4.705173492,1.904393196,-0.077238515,0.02955555,-0.040443763,0.09284059,0.052282199,0.127100632,-0.047958374,0.470999986,0.408711899,0,0,0,1,0
3,1634,a3d9,1674047248,7.409999847,141,43928,18120,33.41488647,35.14554977,39.34759521,200,-0.025975712,0.023805197,0.203591451,0.978421748,4.712110043,1.920217991,-0.077553757,-0.030189628,-0.053633802,0.094661124,0.004249987,0.118500493,0.029063225,0.470999986,0.409128927,0,0,0,1,0
3,1635,a3d9,1674047248,7.409999847,141,43963,18350,33.41489029,35.14554977,39.33994293,200,-0.025556942,0.022906881,0.204105556,0.978347123,4.714277744,1.935909271,-0.075781174,0.013164966,-0.034856569,0.036581445,-0.025286708,0.168411404,-0.169355392,0.470999986,0.410219433,0,0,0,1,0
3,1636,a3d9,1674047248,7.409999847,141,43963,18350,33.4148941,35.14555359,39.33571625,200,-0.023997195,0.023407413,0.20401457,0.978393734,4.7171731,1.9508214,-0.07531634,0.05437734,0.037952796,-0.030200507,-0.011842261,0.132569939,0.031186104,0.470999986,0.410105808,0,0,0,1,0
3,1637,a3d9,1674047248,7.409999847,141,44014,18350,33.41490173,35.14555359,39.31937408,200,-0.022439355,0.023489133,0.204443395,0.978339195,4.722094536,1.962728977,-0.071764797,0.003758142,0.015264201,-0.021131806,0.012932817,0.067826599,0.114390373,0.470999986,0.411062599,0,0,0,1,0
3,1638,a3d9,1674047248,7.409999847,141,44014,18350,33.41490936,35.1455574,39.31232452,200,-0.021625254,0.023087535,0.205033958,0.97824353,4.727232933,1.969513535,-0.068764359,0.013258199,0.032470185,-0.011362773,0.013129631,0.046893604,0.147431374,0.470999986,0.412317042,0,0,0,1,0
3,1639,a3d9,1674047248,7.940000057,157,44073,18350,33.41491318,35.1455574,39.30010223,200,-0.021330161,0.02253514,0.205504864,0.978164077,4.731379032,1.977463126,-0.064491265,0.006220117,-0.018455103,-0.049462747,0.019579463,0.056061905,0.187571526,0.470999986,0.413301428,0,0,0,1,0
3,1640,a3d9,1674047248,7.940000057,157,44073,18350,33.41491699,35.14556122,39.2932663,200,-0.021598563,0.021577625,0.205863953,0.978104234,4.734483719,1.984701395,-0.058745109,0.027425647,-0.030764924,-0.059997607,-0.010001991,0.045752626,0.122619629,0.470999986,0.414034697,0,0,0,1,0
3,1641,a3d9,1674047248,7.940000057,157,44075,18350,33.41492462,35.14556122,39.282547,200,-0.020266745,0.020896019,0.205900699,0.978139818,4.735676765,1.993116736,-0.054242462,0.074063987,-0.004518212,0.045451324,-0.019540206,0.080299221,-0.000774384,0.470999986,0.414180891,0,0,0,1,0
3,1642,a3d9,1674047248,7.940000057,157,44075,18350,33.41492844,35.14556503,39.27826691,200,-0.01933315,0.019940455,0.205742449,0.978211939,4.737594128,1.997908235,-0.049204759,0.006819715,-0.029589834,0.10002704,-0.01633722,0.028524496,-0.050889015,0.470999986,0.413910057,0,0,0,1,0
3,1643,a3d9,1674047248,7.940000057,157,44072,18350,33.41493225,35.14556503,39.26676178,200,-0.018901614,0.019422574,0.205577776,0.978265464,4.735873222,2.003078222,-0.047903538,-0.01253167,-0.050877724,0.016048616,-0.06770061,0.023022162,-0.161560059,0.470999986,0.413597713,0,0,0,1,0
3,1644,a3d9,1674047249,7.940000057,157,44072,18350,33.41493988,35.14556885,39.26259613,200,-0.019328553,0.019559853,0.205543801,0.97826153,4.73324728,2.007868767,-0.045370512,-0.021295998,0.007025985,-0.004182477,-0.036769487,0.016026672,0.087296486,0.470999986,0.413508297,0,0,0,1,0
3,1645,a3d9,1674047249,7.940000057,157,44089,18482,33.4149437,35.14556885,39.2600174,200,-0.019559387,0.020207094,0.20534876,0.978284717,4.728954315,2.017374516,-0.042804066,0.001238109,0.065030761,-0.060486861,-0.05268541,0.066805311,0.130604744,0.470999986,0.413091932,0,0,0,1,0
3,1646,a3d9,1674047249,7.940000057,157,44089,18482,33.41494751,35.14557266,39.25682831,200,-0.018953377,0.020725247,0.205194116,0.978318274,4.726620674,2.026198864,-0.040499218,0.050123207,0.041334342,-0.084750563,-0.030299816,0.029266866,0.103918076,0.470999986,0.412797577,0,0,0,1,0
3,1647,a3d9,1674047249,7.940000057,157,44096,18482,33.41495514,35.14557266,39.25291443,200,-0.017276039,0.022036267,0.205172464,0.978325188,4.72681427,2.033203602,-0.038162239,0.048824575,0.00225107,-0.024814634,0.01896384,0.010299282,0.082284927,0.470999986,0.412821444,0,0,0,1,0
3,1648,a3d9,1674047249,7.940000057,157,44096,18482,33.41495895,35.14557648,39.24799347,200,-0.016662154,0.021770645,0.205220699,0.978331685,4.729826927,2.034944534,-0.040330067,0.013477014,0.017686922,-0.00104579,0.023865189,-0.019256961,-0.033288956,0.470999986,0.412949932,0,0,0,1,0
3,1649,a3d9,1674047249,4.119999886,204,44092,18482,33.41496658,35.14557648,39.25314331,200,-0.015122128,0.021128146,0.205255195,0.978363574,4.733185291,2.034790277,-0.039373238,0.042348295,-0.046084322,0.10118039,0.000327322,-0.014580628,-0.094528198,0.470999986,0.413092366,0,0,0,1,0
3,1650,a3d9,1674047249,4.119999886,204,44092,18482,33.4149704,35.14558029,39.24865723,200,-0.014293221,0.020690447,0.204940349,0.978451371,4.736950874,2.028730392,-0.039912082,-0.037158825,-0.069089577,0.010227703,0.008939738,-0.070677303,-0.071685791,0.470999986,0.412485579,0,0,0,1,0
3,1651,a3d9,1674047249,4.119999886,204,44084,18482,33.41497421,35.14558029,39.25947571,200,-0.014296642,0.02000794,0.204400241,0.978578448,4.737944603,2.025140047,-0.039049953,-0.020763859,0.01555205,-0.065442696,-0.03325678,-0.064729191,0.022144318,0.470999986,0.411381977,0,0,0,1,0
3,1652,a3d9,1674047249,4.119999886,204,44084,18482,33.41498184,35.14558411,39.25489044,200,-0.014185957,0.020022515,0.203914583,0.978681087,4.73823452,2.020149469,-0.036830012,0.037128322,-0.028857704,-0.055074666,-0.014173754,-0.06764292,0.119003296,0.470999986,0.410393692,0,0,1,1,0
3,1653,a3d9,1674047249,4.119999886,204,44085,18482,33.41498566,35.14558411,39.26413727,200,-0.011371296,0.006311964,0.202707171,0.979153037,4.746827126,2.016831398,-0.029183276,0.018952588,-0.423188329,-0.078108013,0.003973689,-0.071329027,-0.030582428,0.470999986,0.408111123,0,0,1,1,0
3,1654,a3d9,1674047250,4.119999886,204,44085,18482,33.41499329,35.14558792,39.26108551,200,-0.004173541,-0.028964117,0.196751133,0.980016649,4.723000526,1.991174579,-0.026128769,0.052114174,-1.415573955,-0.561609209,-0.304912776,-0.332112074,0.148210526,0.470999986,0.396799232,0,0,1,1,0
3,1655,a3d9,1674047250,4.119999886,204,44095,18494,33.4149971,35.14558792,39.26896667,200,0.026748588,-0.114478342,0.151613474,0.981423736,4.630893707,1.93882215,-0.00109607,0.28989917,-1.651461482,-1.219875216,-1.672011733,-0.821553946,-0.14453125,0.470999986,0.304383852,0,0,1,1,0
3,1910,a3d9,1674047275,4.449999809,104,44092,17634,33.41482544,35.14554214,39.28997803,200,-0.007335548,0.024293199,0.165335029,0.985910952,4.635007381,1.644076824,-0.054798324,-0.007122599,-0.068254896,-0.004754098,0.224477619,0.26475662,0.020897865,0.470999986,0.332141281,0,0,0,1,0
3,1911,a3d9,1674047275,4.449999809,104,44124,17634,33.41483307,35.14554596,39.28343964,200,-0.005175427,0.021995636,0.165051386,0.986026108,4.653219223,1.665043712,-0.051930286,0.040624388,-0.030721445,-0.053483129,0.127441049,0.24537155,0.051465988,0.470999986,0.33163921,0,0,0,1,0
3,1912,a3d9,1674047275,4.449999809,104,44124,17634,33.41483688,35.14554596,39.2795105,200,-0.003506855,0.02097821,0.164739981,0.986107707,4.664422989,1.68106699,-0.042660698,0.049156953,0.033720534,-0.037026089,0.055703074,0.182556361,0.232103348,0.470999986,0.331064269,0,0,0,1,0
3,1913,a3d9,1674047275,4.449999809,104,44130,17634,33.41484451,35.14554596,39.27613831,200,-0.001830068,0.022534769,0.163972571,0.986205757,4.673464298,1.693159103,-0.041548155,0.030666426,0.033295412,-0.042356826,0.085070014,0.128623143,0.055257797,0.470999986,0.329603066,0,0,0,1,0
3,1914,a3d9,1674047276,4.449999809,104,44130,17634,33.41484833,35.14554977,39.27209473,200,-0.0002254,0.023810418,0.163382679,0.986275375,4.689923286,1.705175281,-0.036659062,0.02973623,0.017842803,0.025231373,0.157935962,0.105369136,0.059267044,0.470999986,0.328503646,0,0,0,1,0
3,1915,a3d9,1674047276,4.449999809,104,44147,17742,33.41485214,35.14554977,39.26200104,200,0.000305573,0.025402255,0.162253052,0.986422122,4.709270477,1.712170124,-0.034425382,-0.020094713,0.032758191,-0.054172121,0.152411997,0.078429319,-0.095794678,0.470999986,0.326274883,0,0,0,1,0
3,1916,a3d9,1674047276,4.449999809,104,44147,17742,33.41485977,35.14555359,39.25926208,200,0.001492138,0.02645988,0.160909504,0.986613274,4.732824802,1.722557425,-0.033783849,0.025620762,0.035577632,-0.078060597,0.19434984,0.085856959,0.002801895,0.470999986,0.323635771,0,0,0,1,0
3,1917,a3d9,1674047276,4.449999809,104,44151,17742,33.41486359,35.14555359,39.25064087,200,0.00518937,0.026873404,0.159329638,0.98684597,4.755026817,1.728307843,-0.034657337,0.084851786,-0.032849316,-0.028854579,0.224693879,0.008092522,-0.110543251,0.470999986,0.320628307,0,0,0,1,0
3,1918,a3d9,1674047276,4.449999809,104,44151,17742,33.4148674,35.14555359,39.24769592,200,0.009992659,0.025689978,0.157579944,0.987121463,4.779792309,1.722459078,-0.039372738,0.077677183,-0.067224592,0.027681824,0.217778727,-0.108549438,-0.193422318,0.470999986,0.317263362,0,0,0,1,0
3,1919,a3d9,1674047276,4.349999905,106,44134,17742,33.41487503,35.1455574,39.23907471,200,0.014515605,0.022322932,0.156051949,0.987389863,4.804595947,1.700295448,-0.049248636,0.049595561,-0.091557577,-0.034007881,0.184064329,-0.264991373,-0.229251862,0.470999986,0.314202515,0,0,0,1,0
3,1920,a3d9,1674047276,4.349999905,106,44134,17742,33.41487885,35.1455574,39.23310089,200,0.015227254,0.020838281,0.155590266,0.987484455,4.818387032,1.664962292,-0.055680655,-0.035152812,-0.011053235,-0.026261855,0.117229655,-0.381819487,0.143268585,0.470999986,0.313221444,0,0,0,1,0
3,1921,a3d9,1674047276,4.349999905,106,44130,17742,33.41488647,35.14556122,39.21289063,200,0.010047132,0.021751283,0.157086015,0.987294257,4.830051422,1.627572775,-0.056040216,-0.14341177,0.072595693,0.038249273,0.075254411,-0.358240485,-0.028175354,0.470999986,0.316101454,0,0,0,1,0
3,1922,a3d9,1674047276,4.349999905,106,44130,17742,33.41489029,35.14556122,39.20684052,200,0.002125569,0.022861587,0.158556357,0.987082958,4.842412472,1.612540722,-0.045040157,-0.170048982,0.034350537,0.067308635,0.124592096,-0.107616678,-0.055440903,0.470999986,0.318796203,0,0,0,1,0
3,1923,a3d9,1674047276,4.349999905,106,44126,17742,33.4148941,35.14556122,39.19200897,200,-0.002512606,0.020779563,0.160367996,0.986835361,4.855415344,1.616841555,-0.042937919,-0.055193681,-0.070408419,0.031413,0.082350567,0.028965205,-0.006466866,0.470999986,0.322233844,0,0,0,1,0
3,1924,a3d9,1674047277,4.349999905,106,44126,17742,33.41490173,35.14556503,39.19081116,200,-0.005516093,0.019030225,0.161654726,0.98664844,4.860786438,1.617804646,-0.024761625,-0.133432433,-0.078971058,0.023416165,0.028720833,0.048244916,0.023765564,0.470999986,0.324705548,0,0,0,1,0
3,1925,a3d9,1674047277,4.349999905,106,44123,17869,33.41490555,35.14556503,39.17324066,200,-0.013314651,0.01576026,0.16277492,0.986447513,4.855037212,1.63458252,-0.013493117,-0.073357441,-0.008757129,-0.004645344,-0.105420247,0.180304378,0.126037598,0.470999986,0.326700293,0,0,0,1,0
3,1926,a3d9,1674047277,4.349999905,106,44123,17869,33.41491318,35.14556503,39.17155457,200,-0.011347636,0.016690833,0.16269055,0.986470699,4.842326641,1.664302111,-0.008833412,0.104370371,0.025918471,-0.004952891,-0.133379579,0.233398467,0.088161469,0.470999986,0.326590192,0,0,0,1,0
3,1927,a3d9,1674047277,4.349999905,106,44123,17869,33.41491699,35.14556885,39.15922546,200,-0.005993137,0.018326413,0.162410557,0.986534834,4.839894295,1.682291865,-0.003023807,0.096799083,6.73e-05,0.021515068,-0.015247801,0.147349253,-0.053408623,0.470999986,0.32621551,0,0,0,1,0
3,1928,a3d9,1674047277,4.349999905,106,44123,17869,33.41492081,35.14556885,39.15897369,200,-0.000434643,0.01810641,0.162067756,0.986613393,4.843349934,1.687850952,-0.004090175,0.066894859,-0.049655296,-0.057450876,-0.000587257,0.031623129,-0.101242065,0.470999986,0.325715353,0,0,0,1,0
3,1929,a3d9,1674047277,4.940000057,101,44108,17869,33.41492844,35.14557266,39.15396881,200,0.003064415,0.017408134,0.162002876,0.986631989,4.843592644,1.682993293,-0.006701037,0.071592219,-0.000512994,-0.018866412,-0.015415267,-0.084920026,0.122421265,0.470999986,0.325686421,0,0,0,1,0
3,1930,a3d9,1674047277,4.940000057,101,44108,17869,33.41493225,35.14557266,39.15635681,200,0.004289712,0.017185658,0.161630169,0.986692429,4.842795849,1.672611713,-0.008058421,0.010274604,0.003233933,-0.009391195,-0.021981224,-0.137500763,0.07924366,0.470999986,0.324964259,0,0,0,1,0
3,1931,a3d9,1674047277,4.940000057,101,44094,17869,33.41493988,35.14557648,39.14703369,200,0.003365129,0.018235274,0.161132246,0.98675859,4.84152174,1.6604563,-0.005634541,-0.038417809,0.047217797,0.028812282,0.003022038,-0.096122622,0.117349625,0.470999986,0.323950376,1,0,0,0,0
3,1932,a3d9,1674047277,4.940000057,101,44094,17869,33.41493988,35.14557648,39.1473465,200,0.001914467,0.018296983,0.161340162,0.986727357,4.845048904,1.655013323,-0.005877998,-0.009035903,-0.022391424,-0.015545766,-0.028399657,-0.037399977,0.007781982,0.470999986,0.324324229,0,0,0,1,0
3,1933,a3d9,1674047277,4.940000057,101,44093,17869,33.41494751,35.14557648,39.14437866,200,0.001425752,0.01797978,0.161364406,0.986730039,4.844080925,1.652236462,-0.006991506,0.013607536,-0.026854236,0.018649668,-0.055580705,-0.012882154,-0.025102615,0.470999986,0.324350259,0,0,0,1,0
3,1934,a3d9,1674047278,4.940000057,101,44093,17869,33.41495132,35.14558029,39.14952087,200,0.001551847,0.018807866,0.161123574,0.986753821,4.839726925,1.649999857,-0.007066065,-0.052150454,0.045434956,-0.058548164,-0.050451487,-0.070018031,-0.04559803,0.470999986,0.323883368,0,0,0,1,0
3,1935,a3d9,1674047278,4.940000057,101,44099,17938,33.41495895,35.14558029,39.14381409,200,-0.00170057,0.01869954,0.16138421,0.986712992,4.840694904,1.643208265,-0.012016055,-0.100161962,0.00941475,0.036214937,0.018614605,-0.079160839,-0.100924492,0.470999986,0.324294071,0,0,0,1,0
3,1936,a3d9,1674047278,4.940000057,101,44099,17938,33.41496658,35.14558029,39.14346313,200,-0.005468698,0.01921602,0.161396205,0.986687422,4.8396945,1.647977471,-0.014289694,-0.037448004,0.023524515,-0.000585856,-0.055945706,0.097083054,-0.022073746,0.470999986,0.324184612,0,0,0,1,0
3,1937,a3d9,1674047278,4.940000057,101,44106,17938,33.4149704,35.14558411,39.14450073,200,-0.005741449,0.02159252,0.161257982,0.986659348,4.840997219,1.667774439,-0.01159209,0.039950255,0.005579594,0.021522706,0.018562835,0.186417162,0.14405632,0.470999986,0.323914772,0,0,0,1,0
3,1938,a3d9,1674047278,4.940000057,101,44106,17938,33.41497421,35.14558411,39.14326477,200,-0.001575805,0.022051893,0.161077574,0.986694098,4.848418713,1.680714965,-0.008133145,0.083492912,-0.081167787,0.018509181,0.07485678,0.104933649,-0.001708031,0.470999986,0.323732631,0,0,1,1,0
3,1939,a3d9,1674047278,14.64000034,92,44123,17938,33.41498184,35.14558792,39.14565277,200,0.006252,0.006923203,0.160585344,0.986977875,4.862931728,1.681198716,0.001766099,0.067859471,-0.482949436,0.041968573,0.065252915,-5.73e-05,-0.250442505,0.470999986,0.3226664,0,0,1,1,0
3,1940,a3d9,1674047278,14.64000034,92,44123,17938,33.41498566,35.14558792,39.14179993,200,0.015072716,-0.03108331,0.154520124,0.987385511,4.840303898,1.655369639,-0.000516029,0.072125554,-1.505725384,-0.393189192,-0.220382363,-0.306509972,-0.012010574,0.470999986,0.309802341,0,0,1,1,0
3,1941,a3d9,1674047278,14.64000034,92,44139,17938,33.41499329,35.14558792,39.14685822,200,0.039018955,-0.122115187,0.10934405,0.985702455,4.74811554,1.593938708,0.016785063,0.295540959,-1.583739758,-1.09870553,-1.766462207,-0.714142323,0.502674103,0.470999986,0.214385916,0,0,1,1,0
3,2178,a3d9,1674047302,8.130000114,125,44044,18542,33.41482925,35.14553833,39.28001404,200,-0.0090873,0.024085293,0.187482446,0.981930554,4.638500214,1.844974518,-0.048603952,-0.018017571,-0.076814406,0.017365912,0.32539162,0.088175312,-0.103844643,0.470999986,0.37709964,0,0,0,1,0
3,2179,a3d9,1674047302,8.06000042,133,44014,18542,33.41483307,35.14554214,39.27574921,200,-0.009120698,0.021954255,0.187753826,0.981928349,4.669734955,1.850899577,-0.04812862,-0.030725528,-0.044819679,-0.008290202,0.301292121,0.075317919,-0.010497093,0.470999986,0.377632338,0,0,0,1,0
3,2180,a3d9,1674047302,8.06000042,133,44014,18542,33.4148407,35.14554214,39.2716217,200,-0.009507412,0.020076133,0.188118458,0.981895089,4.696972847,1.854420185,-0.045816578,-0.005970017,-0.038949784,-0.050454926,0.269429088,0.049991295,0.014730453,0.470999986,0.378347267,0,0,0,1,0
3,2181,a3d9,1674047302,8.06000042,133,43991,18542,33.41484451,35.14554214,39.26572418,200,-0.010016794,0.017987486,0.188541412,0.981849432,4.718964577,1.859727144,-0.044884164,0.003430849,-0.026594423,-0.040662296,0.211598739,0.077036679,0.015641212,0.470999986,0.379182595,0,0,0,1,0
3,2182,a3d9,1674047302,8.06000042,133,43991,18542,33.41485214,35.14554596,39.26150513,200,-0.010516604,0.016851641,0.188898534,0.981795669,4.736316204,1.866292,-0.044550322,-0.013471475,0.008007413,-0.020454176,0.175476924,0.043721423,0.05248642,0.470999986,0.379891664,0,0,0,1,0
3,2183,a3d9,1674047302,8.06000042,133,44007,18542,33.41485596,35.14554596,39.26457214,200,-0.010668932,0.016563591,0.18924427,0.981732368,4.752418041,1.874037981,-0.042307537,0.016841732,0.010244763,0.003405883,0.142910019,0.071424469,-0.022643089,0.470999986,0.380591126,0,0,0,1,0
3,2184,a3d9,1674047303,8.06000042,133,44007,18542,33.41485977,35.14554977,39.26203918,200,-0.010560387,0.016289745,0.189487085,0.981691301,4.771345139,1.879952431,-0.042617038,0.014314874,-0.006459049,0.066835277,0.162829056,0.066038512,-0.019730568,0.470999986,0.38108999,0,0,0,1,0
3,2185,a3d9,1674047303,8.06000042,133,44005,18655,33.4148674,35.14554977,39.26298523,200,-0.01051604,0.015407807,0.189708024,0.981663346,4.789066792,1.886081457,-0.040565405,0.00194351,-0.043023869,0.082532778,0.147257745,0.07353954,-0.049372673,0.470999986,0.381543162,0,0,0,1,0
3,2186,a3d9,1674047303,8.06000042,133,44005,18655,33.41487122,35.14555359,39.25991821,200,-0.010810831,0.014523336,0.190071449,0.981603324,4.803062916,1.8923949,-0.03985659,-0.022683965,-0.034995418,0.063145854,0.125001341,0.066224992,-0.01659584,0.470999986,0.382276978,0,0,0,1,0
3,2187,a3d9,1674047303,8.06000042,133,43966,18655,33.41487885,35.14555359,39.26096344,200,-0.010470801,0.013780246,0.190354347,0.981562853,4.814251423,1.900474072,-0.039718166,0.010505894,-0.036018677,-0.004489876,0.085222498,0.081320554,0.007951736,0.470999986,0.382866469,0,0,0,1,0
3,2188,a3d9,1674047303,8.06000042,133,43966,18655,33.41488266,35.1455574,39.25885773,200,-0.010493175,0.013505328,0.190443739,0.981549144,4.824454308,1.907694936,-0.037787531,-0.010825943,-0.014071787,-0.00290703,0.081021562,0.080504805,0.050973892,0.470999986,0.383049101,0,0,0,1,0
3,2189,a3d9,1674047303,40.86999893,150,43950,18655,33.41488647,35.1455574,39.26176453,200,-0.01007095,0.012256984,0.190668851,0.981526256,4.834300518,1.918343186,-0.034870692,0.02527952,-0.018445976,-0.043807913,0.07511884,0.086874902,0.104746819,0.470999986,0.383525072,0,0,0,1,0
3,2190,a3d9,1674047303,40.86999893,150,43950,18655,33.4148941,35.14556122,39.25799561,200,-0.008811288,0.010921669,0.190899923,0.981509209,4.842331409,1.927157044,-0.03574222,0.02787545,-0.05157363,0.067560509,0.06298925,0.074921936,-0.13517952,0.470999986,0.384033125,0,0,0,1,0
3,2191,a3d9,1674047303,40.86999893,150,43938,18655,33.41489792,35.14556122,39.25658417,200,-0.007627449,0.009589907,0.191130221,0.981488228,4.848070621,1.927943349,-0.034959491,0.006799201,0.007682887,-0.039113548,0.030261355,-0.030262398,0.074979782,0.470999986,0.384533227,0,0,0,1,0
3,2192,a3d9,1674047303,40.86999893,150,43938,18655,33.41490555,35.14556122,39.25448608,200,-0.007717519,0.009388604,0.191552237,0.981407166,4.852981567,1.926758766,-0.034550782,0.00321555,0.017390713,0.006629101,0.014771799,-0.015025968,-0.018311501,0.470999986,0.385392125,0,0,0,1,0
3,2193,a3d9,1674047303,40.86999893,150,43945,18655,33.41490936,35.14556503,39.25281525,200,-0.009100548,0.009203886,0.19208096,0.981293738,4.858500004,1.927885652,-0.034674674,-0.035126686,0.012850179,0.043354135,0.027602237,-0.009134985,0.002162933,0.470999986,0.386442625,0,0,0,1,0
3,2194,a3d9,1674047304,40.86999893,150,43945,18655,33.41491318,35.14556503,39.24872589,200,-0.010242745,0.008751039,0.192364112,0.981231153,4.861514091,1.931389689,-0.035871994,-0.028047027,-0.004555929,0.069114149,-0.000430381,0.029017635,-0.088460922,0.470999986,0.387000221,0,0,0,1,0
3,2195,a3d9,1674047304,40.86999893,150,43969,18738,33.41492081,35.14556885,39.24577332,200,-0.010519295,0.008567419,0.192587227,0.981186092,4.861814499,1.939422727,-0.034462605,0.023304066,-0.033484019,0.068565451,-0.027210139,0.107414588,-0.083298683,0.470999986,0.387451245,0,0,0,1,0
3,2196,a3d9,1674047304,40.86999893,150,43969,18738,33.41492462,35.14556885,39.24274445,200,-0.009781094,0.008349828,0.192514673,0.981209815,4.861268997,1.945141435,-0.034410927,0.000590054,-0.051934574,0.048017044,-0.019683082,0.05844469,-0.124998093,0.470999986,0.387319608,0,0,0,1,0
3,2197,a3d9,1674047304,40.86999893,150,43994,18738,33.41493225,35.14557266,39.24225616,200,-0.00937131,0.00864953,0.192309991,0.981251359,4.860659122,1.949198484,-0.033948038,0.003418511,-0.009999111,-0.002197882,-0.027852412,0.03649082,-0.009969711,0.470999986,0.38690788,0,0,0,1,0
3,2198,a3d9,1674047304,40.86999893,150,43994,18738,33.41493607,35.14557266,39.24021912,200,-0.00882801,0.008910019,0.191941887,0.981326163,4.86167717,1.953020692,-0.030905576,0.009192683,-0.015174899,-0.055242915,0.001425926,0.022312948,0.015333176,0.470999986,0.386166462,0,0,0,1,0
3,2199,a3d9,1674047304,18.62000084,165,44004,18738,33.41493988,35.14557648,39.23870087,200,-0.009132993,0.008015406,0.191991016,0.981321454,4.864140034,1.95449543,-0.030291706,-0.007164064,0.006167045,-0.048533939,0.010031106,-0.006822636,0.068968773,0.470999986,0.386267033,0,0,0,1,0
3,2200,a3d9,1674047304,18.62000084,165,44004,18738,33.41494751,35.14557648,39.23554993,200,-0.009645976,0.007390521,0.192277297,0.981265366,4.863649845,1.956822515,-0.030417688,-0.012726911,-0.012927759,-0.012902932,-0.013921008,0.010603098,0.003521919,0.470999986,0.386846804,0,0,0,1,0
3,2201,a3d9,1674047304,18.62000084,165,44038,18738,33.41495132,35.14558029,39.22967529,200,-0.010090008,0.006188256,0.192930058,0.98114109,4.864552975,1.959819555,-0.032766797,-0.015721373,-0.019275254,0.045483083,-0.021791339,0.002043736,-0.022294998,0.470999986,0.388182764,0,0,0,1,0
3,2202,a3d9,1674047304,18.62000084,165,44038,18738,33.41495895,35.14558029,39.22621918,200,-0.010745764,0.005410687,0.193664715,0.980993986,4.863842487,1.9631989,-0.035218574,-0.02379268,-0.014519206,0.08049845,-0.050806008,0.039362986,-0.046926498,0.470999986,0.389680667,0,0,0,1,0
3,2203,a3d9,1674047304,18.62000084,165,44048,18738,33.41496277,35.14558411,39.22112274,200,-0.011264008,0.005219056,0.194475591,0.980828822,4.860655308,1.968380094,-0.035697483,0.000146267,-0.029210716,0.059610792,-0.069729827,0.071346566,-0.016432762,0.470999986,0.391329466,0,0,0,1,0
3,2204,a3d9,1674047305,18.62000084,165,44048,18738,33.41496658,35.14558411,39.2188797,200,-0.011016547,0.005152088,0.195245862,0.980678916,4.856050014,1.976493716,-0.034188811,-0.006706632,-0.012555373,0.020780327,-0.073493369,0.067189604,-0.008295059,0.470999986,0.392904516,0,0,0,1,0
3,2205,a3d9,1674047305,18.62000084,165,44046,18732,33.41497421,35.14558411,39.20903015,200,-0.00997941,0.005098694,0.196066886,0.980526507,4.85115242,1.982649565,-0.03402504,0.012080645,0.006593255,-0.046736881,-0.079690158,0.048494704,0.039329529,0.470999986,0.394593541,0,0,0,1,0
3,2206,a3d9,1674047305,18.62000084,165,44046,18732,33.41497803,35.14558792,39.20541382,200,-0.009773607,0.005481098,0.196558118,0.980428159,4.846154213,1.985386968,-0.033289675,-0.018186744,0.034044284,-0.046252232,-0.068519257,0.041213185,0.061871529,0.470999986,0.395593698,0,0,0,1,0
3,2207,a3d9,1674047305,18.62000084,165,44036,18732,33.41498566,35.14558792,39.19232941,200,-0.008606872,0.006114039,0.19678022,0.980390787,4.841034889,1.99159205,-0.030016227,0.028970363,0.019124644,-0.057255339,-0.065032303,0.046212681,0.090982437,0.470999986,0.396056791,0,0,1,1,0
3,2208,a3d9,1674047305,18.62000084,165,44036,18732,33.41498947,35.14559174,39.19010925,200,-0.005198823,-0.003068128,0.196956322,0.980393708,4.844322681,1.994469523,-0.020403869,-0.018180875,-0.447609395,-0.041486714,0.091104567,0.01417876,0.315589905,0.470999986,0.396534874,0,0,1,1,0
3,2209,a3d9,1674047305,29.42000008,147,44032,18732,33.41499329,35.14559174,39.18297577,200,0.001648517,-0.032013889,0.194756165,0.980327725,4.822725296,1.981893539,-0.016919905,0.091766551,-1.00924921,-0.2878097,-0.373301148,-0.24680689,-0.163282394,0.470999986,0.392515673,0,0,1,1,0
3,2210,a3d9,1674047305,29.42000008,147,44032,18732,33.41500092,35.14559555,39.1823349,200,0.028482024,-0.112107791,0.156477734,0.980884969,4.76300478,1.936134338,-0.006424153,0.25098601,-1.673090696,-1.173725843,-1.15022707,-0.729127407,-0.2253685,0.470999986,0.313911394,0,0,1,1,0
3,5574,a3d9,1674047642,6.599999905,255,43760,18324,33.41493607,35.14560699,39.24803925,200,-0.027159162,0.012677935,0.204424188,0.978423417,4.633341312,1.914568901,-0.015908819,-0.037893917,-0.029369172,-0.025235236,0.251503736,0.134780794,0.056950569,0.470999986,0.411076033,0,0,0,1,0
3,5575,a3d9,1674047642,6.599999905,255,43745,18541,33.4149437,35.14560699,39.25600433,200,-0.024057908,0.012611685,0.205180511,0.978347123,4.649921417,1.927968144,-0.019765321,0.022440085,0.003412773,-0.013447341,0.213317975,0.133016527,0.021809578,0.470999986,0.412726282,0,0,0,1,0
3,5576,a3d9,1674047642,6.599999905,255,43745,18541,33.41494751,35.14561081,39.2567749,200,-0.022783978,0.012656582,0.206130624,0.978177309,4.671040058,1.928776145,-0.023515683,0.005543044,-0.016731758,-0.011290721,0.250086516,0.05682116,0.022762299,0.470999986,0.414708255,0,0,0,1,0
3,5577,a3d9,1674047642,6.599999905,255,43711,18541,33.41495132,35.14561081,39.26045227,200,-0.026957482,0.011030274,0.207683653,0.977762282,4.690551281,1.931236148,-0.028363235,-0.074215256,-0.067255355,-0.009458839,0.234392822,0.084297135,0.148639679,0.470999986,0.417803286,0,0,1,1,0
3,5578,a3d9,1674047642,6.599999905,255,43711,18541,33.41495514,35.14561081,39.2596283,200,-0.028193749,-0.002609718,0.209503204,0.977397919,4.70784235,1.949996233,-0.019268477,-0.086838134,-0.424166262,0.060753904,0.180288374,0.147035539,-0.105566978,0.470999986,0.422116812,0,0,1,1,0
3,5579,a3d9,1674047642,6.75,255,43697,18541,33.41496277,35.14561462,39.26674652,200,-0.027514398,-0.040409639,0.207217842,0.977072537,4.698982239,1.944651961,-0.024358064,-0.062476862,-1.416166306,-0.570482016,-0.124060854,0.030953113,0.09664917,0.470999986,0.420360847,0,0,1,1,0
3,5928,a3d9,1674047677,8.739999771,120,43712,18837,33.41491318,35.14561081,39.26035309,200,-0.00451835,0.027835619,0.158752799,0.986915529,4.612103462,1.60444808,-0.020024424,-0.013291794,-0.083210617,0.007308437,0.563645482,0.009223822,-0.160078049,0.470999986,0.31898027,0,0,0,1,0
3,5929,a3d9,1674047677,7.96999979,123,43701,18837,33.41492081,35.14561081,39.25824738,200,-0.004657905,0.024080778,0.158410862,0.987068594,4.660576344,1.597676039,-0.026734568,-0.022652481,-0.07662075,0.002644149,0.479191899,-0.015193839,-0.131588936,0.470999986,0.318220078,0,0,0,1,0
3,5930,a3d9,1674047677,7.96999979,123,43701,18837,33.41492462,35.14561081,39.25704956,200,-0.005033266,0.021318762,0.158084005,0.987182677,4.701998234,1.591110826,-0.030289268,-0.006947208,-0.07141386,-0.007022033,0.39614439,-0.007694515,-0.089938164,0.470999986,0.31750683,0,0,0,1,0
3,5931,a3d9,1674047677,7.96999979,123,43685,18837,33.41492844,35.14561462,39.25544739,200,-0.005010929,0.019174594,0.157418683,0.987333059,4.737872124,1.585705876,-0.032570783,-0.015422308,-0.038291268,-0.03312663,0.357142657,-0.015459165,-0.006519318,0.470999986,0.316138851,0,0,0,1,0
3,5932,a3d9,1674047677,7.96999979,123,43685,18837,33.41493607,35.14561462,39.25287628,200,-0.005149424,0.017865373,0.156652242,0.987478793,4.770000458,1.577740192,-0.036083411,0.004686914,-0.003751453,-0.074305341,0.302824706,-0.033315588,0.041593552,0.470999986,0.314570654,0,0,0,1,0
3,5933,a3d9,1674047677,7.96999979,123,43685,18837,33.41493988,35.14561462,39.25108337,200,-0.004722693,0.016396429,0.15575254,0.987648726,4.798008919,1.570417404,-0.036682367,0.006149129,-0.00646675,-0.032276426,0.288132519,-0.042787112,0.063158035,0.470999986,0.312752884,0,0,0,1,0
3,5934,a3d9,1674047678,7.96999979,123,43685,18837,33.4149437,35.14561844,39.24957275,200,-0.004583866,0.015388056,0.155075744,0.987772107,4.823753834,1.561968088,-0.03575208,0.010767249,-0.007829937,-0.019080603,0.267357975,-0.066694751,0.064739227,0.470999986,0.311380531,0,0,0,1,0
3,5935,a3d9,1674047678,7.96999979,123,43669,19016,33.41495132,35.14561844,39.25180054,200,-0.004734546,0.014611301,0.154584825,0.987860143,4.848334312,1.555012703,-0.034706049,-0.003175973,0.00608945,-0.038553193,0.254369587,-0.084278598,0.113681793,0.470999986,0.310377945,0,0,0,1,0
3,5936,a3d9,1674047678,7.96999979,123,43669,19016,33.41495514,35.14561844,39.25,200,-0.004833048,0.01347912,0.154035807,0.987961471,4.865828991,1.548294544,-0.033811707,0.007599226,-0.108135462,-0.028772751,0.249644071,-0.063291378,0.076528549,0.470999986,0.309259104,0,0,1,1,0
3,5937,a3d9,1674047678,7.96999979,123,43573,19016,33.41496277,35.14562225,39.25133514,200,-0.003682679,-0.009799116,0.154144809,0.987992823,4.88977766,1.539671183,-0.028968237,-0.052380171,-0.523192108,-0.019031292,0.118855283,-0.106278352,0.108436584,0.470999986,0.309634698,0,0,1,1,0
3,5938,a3d9,1674047678,7.96999979,123,43573,19016,33.41496658,35.14562225,39.24958801,200,0.003408813,-0.049044959,0.14660427,0.987972736,4.858536243,1.519852877,-0.027874848,0.10273578,-1.769507289,-0.735985637,-0.259537697,-0.220389873,0.277650833,0.470999986,0.295004977,0,0,1,1,0
3,5939,a3d9,1674047678,8.75,125,43511,19016,33.4149704,35.14562607,39.25016022,200,0.032444041,-0.137807816,0.091326401,0.985705793,4.719059467,1.450749397,-0.03117713,0.151314273,-1.406105876,-1.316500545,-2.026434422,-0.905624926,-0.269605637,0.470999986,0.179055082,0,0,1,1,0
3,6294,a3d9,1674047714,9.960000038,122,43650,19014,33.41493988,35.14561844,39.22674561,200,-0.038808402,0.017680261,0.207156748,0.977377832,4.629076004,1.866960287,-0.023891699,-0.061756093,-0.020109665,0.112003595,0.211808056,0.261477381,-0.092261314,0.470999986,0.415980473,0,0,0,1,0
3,6295,a3d9,1674047714,9.960000038,122,43621,19169,33.41494751,35.14562225,39.22827148,200,-0.040374845,0.012309776,0.21008563,0.976771414,4.649027348,1.888608336,-0.024115644,-0.044949874,-0.331325859,0.067879103,0.238418132,0.314456344,0.045452118,0.470999986,0.422193155,0,0,1,1,0
3,6296,a3d9,1674047714,9.960000038,122,43621,19169,33.41495132,35.14562225,39.2285614,200,-0.03849579,-0.005208985,0.212906286,0.976300061,4.659936428,1.913964987,-0.021858642,-0.05886339,-0.591623485,0.130280465,0.086610317,0.326185584,-0.038808823,0.470999986,0.429185093,0,0,1,1,0
3,6297,a3d9,1674047714,9.960000038,122,43505,19169,33.41495514,35.14562607,39.23801422,200,-0.019988073,-0.074652545,0.199462473,0.976853192,4.624424934,1.926660776,-0.015358981,0.272351831,-2.046315432,-0.944332421,-0.322759926,0.100022934,0.400527954,0.470999986,0.407659597,0,0,1,1,0
3,6991,a3d9,1674047783,3.789999962,278,43583,18956,33.41493225,35.14562225,39.26983643,200,-0.023464413,0.029448176,0.183805391,0.982241213,4.620273113,1.692949414,-0.024114184,-0.08483693,0.022768794,-0.010143708,0.366694421,0.046141908,0.028725624,0.470999986,0.368801641,0,0,0,1,0
3,6992,a3d9,1674047783,3.789999962,278,43583,18956,33.41493607,35.14562607,39.27147675,200,-0.026383977,0.026960328,0.185460702,0.981927395,4.647128582,1.708452225,-0.027836846,-0.038177051,-0.016434077,0.027131351,0.275239348,0.180685848,-0.040122032,0.470999986,0.372034204,0,0,0,1,0
3,6993,a3d9,1674047783,3.789999962,278,43585,18956,33.4149437,35.14562607,39.2780304,200,-0.027529787,0.023697769,0.187566712,0.981579959,4.667249203,1.723274231,-0.031158846,-0.021957919,-0.037917051,0.053395383,0.199489191,0.224191397,-0.152968407,0.470999986,0.376333492,0,0,0,1,0
3,6994,a3d9,1674047784,3.789999962,278,43585,18956,33.41494751,35.14562607,39.27927399,200,-0.028088164,0.021767743,0.189229995,0.981289566,4.681373119,1.739726186,-0.034501094,-0.041782502,-0.019494146,0.064444073,0.141393781,0.20971033,-0.10452652,0.470999986,0.379745305,0,0,0,1,0
3,6995,a3d9,1674047784,3.789999962,278,43589,19153,33.41495132,35.14562988,39.28277588,200,-0.03052322,0.018672504,0.191688582,0.980803311,4.692614079,1.75474751,-0.036703661,-0.062902972,-0.177557126,0.020695392,0.11288403,0.24145022,0.019062042,0.470999986,0.384737985,0,0,1,1,0
3,6996,a3d9,1674047784,3.789999962,278,43589,19153,33.41495514,35.14562988,39.28166962,200,-0.029831987,0.003843466,0.193966672,0.980546892,4.70332098,1.778136849,-0.036389254,-0.086681031,-0.511971176,0.023880491,0.133127078,0.315920353,0.065792084,0.470999986,0.390041668,0,0,1,1,0
3,6997,a3d9,1674047784,3.789999962,278,43580,19153,33.41496277,35.1456337,39.2802887,200,-0.013718725,-0.06372457,0.180162638,0.981474578,4.675527573,1.79649961,-0.027838876,0.262009054,-2.052149773,-0.870971143,-0.262369633,0.175424069,0.363804817,0.470999986,0.366116156,0,0,1,1,0
6,3315,a3d9,1675938492,5.170000076,78,46685,17089,33.41513062,35.14567184,58.76613617,200,-0.043336641,0.068814471,0.097856432,0.991872311,4.623039246,0.900023699,-0.022409774,0.062331915,0.015011389,-0.014813383,0.318746418,0.051785827,0.169809341,0.470999986,0.191332576,0,0,0,1,0
6,3316,a3d9,1675938492,5.170000076,78,46685,17089,33.41513443,35.14567566,58.76339722,200,-0.043816376,0.066933602,0.098513998,0.991914809,4.647467136,0.898518801,-0.015922541,-0.117075682,-0.070854768,0.010276563,0.351535767,-0.018848546,0.018398285,0.470999986,0.192684018,0,0,0,1,0
6,3317,a3d9,1675938492,5.170000076,78,46691,17251,33.41514206,35.14567566,58.764328,200,-0.048272856,0.066270515,0.100922436,0.991510272,4.666005135,0.904151618,-0.009207867,-0.056955274,0.024394717,0.039694708,0.154029995,0.084079891,-0.084817886,0.470999986,0.19696368,0,0,0,1,0
6,3318,a3d9,1675938492,5.170000076,78,46691,17251,33.41514587,35.14567566,58.76029968,200,-0.049048614,0.067762129,0.101825982,0.991278946,4.674474716,0.920721412,-0.021333925,-0.035751745,0.046445616,0.039975982,0.174182773,0.24281694,-0.305534363,0.470999986,0.198597315,0,0,0,1,0
6,3319,a3d9,1675938492,5.170000076,78,46691,17251,33.4151535,35.14567566,58.76161194,200,-0.046059966,0.064757027,0.101093009,0.991698146,4.697621346,0.954524875,-0.044487327,0.166972429,-0.067284241,-0.10457103,0.244731158,0.294991076,0.190288544,0.470999986,0.197699886,0,0,0,1,0
6,3320,a3d9,1675938492,5.170000076,78,46691,17251,33.41515732,35.14567566,58.75775909,200,-0.042490307,0.063057356,0.100455366,0.992031813,4.697876453,0.961304009,-0.027415911,-0.029676657,-0.00692978,0.035915967,0.022133838,0.054693423,0.195487022,0.470999986,0.196978196,0,0,0,1,0
6,3321,a3d9,1675938492,5.170000076,78,46670,17251,33.41516113,35.14567947,58.76470947,200,-0.040917534,0.063952193,0.100217283,0.992064714,4.69199419,0.959373355,-0.018180991,0.054159731,0.041127585,-0.094259389,-0.028123934,0.00625345,0.199396133,0.470999986,0.19666706,0,0,0,1,0
6,3322,a3d9,1675938493,5.170000076,78,46670,17251,33.41516495,35.14567947,58.76317596,200,-0.041171387,0.065843359,0.100674905,0.991884112,4.693741322,0.956331551,-0.008416193,-0.123610064,0.090272628,0.060908787,0.013939654,0.007363812,0.123133659,0.470999986,0.197477018,0,0,0,1,0
6,3323,a3d9,1675938493,5.170000076,78,46660,17251,33.41517258,35.14567947,58.76594543,200,-0.042523876,0.06094275,0.101345502,0.992071986,4.705340862,0.964798689,0.001302215,-0.071529694,-0.418905079,-0.066273175,0.252737194,0.153719991,0.01285553,0.470999986,0.19887398,0,0,1,1,0
6,3324,a3d9,1675938493,5.170000076,78,46660,17251,33.41517639,35.14567947,58.76442719,200,-0.041900117,0.046309207,0.102557696,0.992764711,4.709245682,0.985471547,0.003342933,-0.025509732,-0.330554336,0.016156962,-0.158641413,0.248923123,0.052148819,0.470999986,0.202141761,0,0,1,1,0
6,3325,a3d9,1675938493,4.650000095,79,46680,17251,33.41518402,35.14567947,58.77577972,200,-0.029240306,-0.042244274,0.077503167,0.995667458,4.695551395,0.9891873,0.058134608,0.19396466,-2.350634813,-1.163065195,-0.279389858,-0.028943129,1.630279541,0.470999986,0.157960324,0,0,1,1,0
6,4320,a3d9,1675938592,7.670000076,293,46212,18953,33.41501617,35.14584351,58.86888885,200,-0.025895875,0.042970981,0.201123863,0.978280187,4.623179436,1.868456006,-0.047254588,0.066087842,0.006218747,0.015449728,0.237029761,0.136015713,-0.103860855,0.470999986,0.40393975,0,0,0,1,0
6,4321,a3d9,1675938592,7.670000076,293,46245,18953,33.41501999,35.14584732,58.86567688,200,-0.023715105,0.042421218,0.200560331,0.978475153,4.658329964,1.880791068,-0.05660975,-0.00177032,-0.096454039,-0.01994388,0.290039182,0.10119845,-0.034619331,0.470999986,0.402975144,0,0,0,1,0
6,4322,a3d9,1675938593,7.670000076,293,46245,18953,33.41502762,35.14584732,58.85380554,200,-0.022173675,0.040087778,0.200248212,0.978673577,4.676973343,1.884647012,-0.05974767,-0.047262136,-0.066631794,-0.00755016,0.255327851,0.048372187,0.028391838,0.470999986,0.402450741,0,0,0,1,0
6,4323,a3d9,1675938593,7.670000076,293,46242,18953,33.41503143,35.14585114,58.84431458,200,-0.021788308,0.036380265,0.200241104,0.97882849,4.697660446,1.884881377,-0.055366702,0.015587358,-0.063477002,-0.022633333,0.151371688,0.003102388,0.204220772,0.470999986,0.402447781,0,0,0,1,0
6,4324,a3d9,1675938593,7.670000076,293,46242,18953,33.41503525,35.14585114,58.8340683,200,-0.023312794,0.033970222,0.200532436,0.978820324,4.705522537,1.88293469,-0.050950266,-0.101513639,0.016047403,0.028553512,0.081346139,-0.021444831,0.054454803,0.470999986,0.4029309,0,0,0,1,0
6,4325,a3d9,1675938593,8.06000042,293,46260,18953,33.41504288,35.14585495,58.83110046,200,-0.024701303,0.030643133,0.200658903,0.978870213,4.710903645,1.883868337,-0.043412782,0.0333125,-0.073740594,-0.0013884,0.001622202,0.03882084,0.000915527,0.470999986,0.403113137,0,0,0,1,0
6,4326,a3d9,1675938593,8.06000042,293,46260,18953,33.41504669,35.14585495,58.81993866,200,-0.026414832,0.030288359,0.200746611,0.978818536,4.705768108,1.883258462,-0.039321281,-0.167884752,0.062984683,-0.049836088,-0.0369661,-0.011760553,0.037200928,0.470999986,0.403183474,0,0,0,1,0
6,4327,a3d9,1675938593,8.06000042,293,46267,18780,33.41505432,35.14585876,58.82304382,200,-0.027644735,0.032562859,0.201296866,0.978598475,4.700976372,1.890491843,-0.037887238,0.067073777,-0.006168323,0.023783436,-0.040581357,0.085440956,0.040416718,0.470999986,0.404197224,0,0,0,1,0
6,4328,a3d9,1675938593,8.06000042,293,46267,18780,33.41505814,35.14585876,58.8132782,200,-0.028156722,0.033247437,0.202133536,0.978388369,4.702645779,1.901004672,-0.041474201,-0.014455625,0.029817838,0.01551941,-0.019198311,0.149815843,-0.058670044,0.470999986,0.405864411,0,0,0,1,0
6,4329,a3d9,1675938593,8.06000042,293,46266,18780,33.41506195,35.14586258,58.81726837,200,-0.026225109,0.032072484,0.202762663,0.978351116,4.702611446,1.915436387,-0.042346004,0.073655926,-0.042427823,0.013003545,0.016243063,0.125360057,0.134597778,0.470999986,0.407300625,0,0,0,1,0
6,4330,a3d9,1675938593,8.06000042,293,46266,18780,33.41506577,35.14586258,58.80626678,200,-0.025216736,0.030913116,0.203056172,0.978354096,4.704734325,1.922468066,-0.036395803,0.050259821,-0.022965852,0.049200129,0.004314407,0.145119518,0.045802116,0.470999986,0.407980358,0,0,0,1,0
6,4331,a3d9,1675938593,8.06000042,293,46258,18780,33.41507339,35.14586258,58.81130981,200,-0.02355217,0.029895328,0.203805506,0.978271365,4.705196857,1.932010174,-0.027458072,0.132147118,0.013471231,0.058981024,-0.002004384,0.093632177,0.179384232,0.470999986,0.409630406,0,0,0,1,0
6,4332,a3d9,1675938594,8.06000042,293,46258,18780,33.41507721,35.14586639,58.79827881,200,-0.023829969,0.028861275,0.203742743,0.978308797,4.704634666,1.933407784,-0.026273303,-0.110742807,-0.048315354,-0.095978104,0.008183175,0.047910206,-0.085595131,0.470999986,0.409492655,0,0,0,1,0
6,4333,a3d9,1675938594,8.06000042,293,46263,18780,33.41508484,35.14586639,58.79979706,200,-0.023756305,0.027107798,0.204300806,0.978244364,4.698665619,1.941040516,-0.018225871,0.086480439,-0.057604074,0.028001159,-0.028286474,0.056053147,0.228032112,0.470999986,0.410655939,0,0,0,1,0
6,4334,a3d9,1675938594,8.06000042,293,46263,18780,33.41508865,35.14587021,58.79273224,200,-0.023403957,0.025676312,0.204518005,0.978246093,4.693081379,1.946068645,-0.015540807,0.01995277,-0.081178747,-0.051558852,-0.070096575,-0.020231372,-0.214226723,0.470999986,0.411136581,0,0,0,1,0
6,4335,a3d9,1675938594,8.020000458,293,46273,18780,33.41509247,35.14587021,58.79943848,200,-0.024578612,0.025993047,0.204923153,0.978124082,4.680609703,1.950592041,-0.019866399,-0.035225872,0.032422833,-0.014057926,-0.097645894,0.03340948,0.077396393,0.470999986,0.41189487,0,0,0,1,0
6,4336,a3d9,1675938594,8.020000458,293,46273,18780,33.4151001,35.14587402,58.79038239,200,-0.024398204,0.026938878,0.205685839,0.977942944,4.676226616,1.952700019,-0.020512447,0.086676449,0.060933929,0.105442509,-0.091841042,0.055637434,0.181838036,0.470999986,0.413454013,0,0,0,1,0
6,4337,a3d9,1675938594,8.020000458,293,46280,18479,33.41510391,35.14587402,58.79333496,200,-0.026762994,0.029426917,0.206924781,0.977547944,4.671109676,1.960605621,-0.018825304,-0.042022381,0.037014421,0.062970646,-0.00693675,0.015787471,0.005817413,0.470999986,0.415813761,0,0,0,1,0
6,4338,a3d9,1675938594,8.020000458,293,46280,18479,33.41510773,35.14587784,58.78370667,200,-0.028685307,0.030712925,0.207630917,0.977304101,4.672869205,1.968835354,-0.020444538,-0.047197431,0.05989809,0.01449479,0.006021385,0.156598464,-0.123811722,0.470999986,0.417115411,0,0,0,1,0
6,4339,a3d9,1675938594,8.020000458,293,46331,18479,33.41511536,35.14587784,58.7851181,200,-0.026620708,0.031333506,0.208967701,0.977057874,4.679927826,1.988990188,-0.012965351,0.125414863,-0.052896462,0.082266465,0.047069054,0.160014257,0.02141571,0.470999986,0.419985885,0,0,0,1,0
6,4340,a3d9,1675938594,8.020000458,293,46331,18479,33.41511917,35.14588165,58.77549744,200,-0.025101179,0.030795712,0.209552556,0.976989925,4.682971478,1.991478682,-0.012873037,-0.040832326,-0.107562236,-0.038824998,0.014725921,0.007752698,0.187891006,0.470999986,0.421290664,0,0,1,1,0
6,4341,a3d9,1675938594,8.020000458,293,46367,18479,33.4151268,35.14588165,58.78154755,200,-0.024435926,0.010783006,0.210729808,0.977179408,4.684006691,1.986784101,-0.020393349,-0.036888167,-0.433109283,0.088179067,-0.109381944,-0.048070028,0.13646698,0.470999986,0.424118167,0,0,1,1,0
6,4342,a3d9,1675938595,8.020000458,293,46367,18479,33.41513062,35.14588165,58.77275848,200,-0.018395174,-0.016719738,0.206461161,0.978138983,4.649348259,1.976567984,-0.024458433,0.134449109,-1.291645527,-0.350618482,-0.385594219,-0.050359823,0.120062828,0.470999986,0.416583112,0,0,1,1,0
6,6313,a3d9,1675938792,2.789999962,331,45495,21896,33.41497421,35.14579391,70.51852417,200,-0.019221481,0.061366104,-0.056846697,0.996309757,4.658351421,-0.681302965,-0.003594125,0.028422693,-0.027819816,0.062047657,0.462202191,0.040198438,-0.05243206,0.470999986,-0.116740909,0,0,0,1,0
6,6314,a3d9,1675938792,2.789999962,331,45495,21896,33.41497803,35.14579391,70.5063324,200,-0.017684726,0.059984673,-0.056967702,0.996415436,4.690514565,-0.676831722,-0.003537025,-0.013012643,-0.069938287,0.012860635,0.461623132,0.051309187,-0.021942139,0.470999986,-0.116720505,0,0,0,1,0
6,6315,a3d9,1675938792,2.470000029,344,45476,21896,33.41498566,35.14579391,70.50819397,200,-0.015384457,0.053329159,-0.055887353,0.996893108,4.733236313,-0.678188384,0.000127248,-0.012282151,-0.128613636,0.033979848,0.358152896,-0.030150689,-0.012032509,0.470999986,-0.113938439,0,0,0,1,0
6,6316,a3d9,1675938792,2.470000029,344,45476,21896,33.41498947,35.1457901,70.49398041,200,-0.015039105,0.0495122,-0.055251691,0.997130692,4.750965118,-0.683788657,0.002508047,0.010872931,-0.085803919,-0.034350444,0.24726662,-0.045764152,0.173930168,0.470999986,-0.112442318,0,0,0,1,0
6,6317,a3d9,1675938792,2.470000029,344,45441,21461,33.4149971,35.1457901,70.5010376,200,-0.017936166,0.04787207,-0.05337026,0.997265339,4.768601894,-0.693216741,0.015267118,-0.050414391,0.032769445,0.009836678,0.184867024,-0.021455871,0.117790222,0.470999986,-0.108857393,0,0,0,1,0
6,6318,a3d9,1675938792,2.470000029,344,45441,21461,33.41500092,35.1457901,70.49107361,200,-0.022924827,0.048566084,-0.051696777,0.997217774,4.781940937,-0.692202568,0.017324567,-0.172758907,0.039172877,0.105759628,0.176899999,0.082967728,0.039590836,0.470999986,-0.106004457,0,0,0,1,0
6,6319,a3d9,1675938792,2.470000029,344,45347,21461,33.41500473,35.1457901,70.49762726,200,-0.026360981,0.050259154,-0.048621658,0.997203588,4.803963184,-0.662784696,0.020325266,-0.048953556,0.0546152,0.09684179,0.204908848,0.304219514,-0.094268799,0.470999986,-0.100267698,0,0,0,1,0
6,6320,a3d9,1675938792,2.470000029,344,45347,21461,33.41501236,35.1457901,70.48561859,200,-0.024935113,0.050830878,-0.048212241,0.997231185,4.820669651,-0.643044472,0.020581881,0.008688139,-0.0007216,0.060659457,0.232491046,0.245828331,0.117017746,0.470999986,-0.099342757,0,0,0,1,0
6,6321,a3d9,1675938792,2.470000029,344,45291,21461,33.41501617,35.1457901,70.49704742,200,-0.021535899,0.048422165,-0.047828708,0.997448683,4.845575809,-0.622147143,0.030921971,0.126153126,-0.077963553,-0.033869125,0.220304638,0.161751449,0.139770508,0.470999986,-0.098094869,0,0,0,1,0
6,6322,a3d9,1675938793,2.470000029,344,45291,21461,33.41501999,35.14578629,70.48754883,200,-0.019978305,0.047426332,-0.047713265,0.997534513,4.854270935,-0.613935828,0.038064416,0.089774564,-0.046031576,0.007678238,0.14749071,0.142650425,-0.030452728,0.470999986,-0.097661389,0,0,0,1,0
6,6323,a3d9,1675938793,2.470000029,344,45271,21461,33.41502762,35.14578629,70.49411011,200,-0.019319948,0.048204772,-0.046143677,0.997583985,4.868771553,-0.602026701,0.036495119,0.05841773,0.024665715,0.047310594,0.147922575,0.143488795,0.090976715,0.470999986,-0.094488822,0,0,0,1,0
6,6324,a3d9,1675938793,2.470000029,344,45271,21461,33.41503143,35.14578629,70.49185181,200,-0.019257044,0.048495449,-0.045443237,0.997603238,4.881896973,-0.590185046,0.033777043,0.035601143,-0.055148568,-0.017726129,0.176605359,0.147442445,0.034502029,0.470999986,-0.093091287,0,0,0,1,0
6,6325,a3d9,1675938793,2.74000001,333,45265,21461,33.41503906,35.14578629,70.50321198,200,-0.018218961,0.048487835,-0.044353951,0.997672141,4.900136948,-0.576230645,0.025334131,0.050544906,0.003440465,0.075150885,0.143892303,0.136047691,0.039665222,0.470999986,-0.09080421,0,0,0,1,0
6,6326,a3d9,1675938793,2.74000001,333,45265,21461,33.41504288,35.14578629,70.49931335,200,-0.018277215,0.048272662,-0.043942682,0.997699738,4.91253233,-0.569625616,0.018114666,0.020951357,-0.024021491,-0.026361506,0.165534943,0.136256844,-0.066319466,0.470999986,-0.089973078,0,0,0,1,0
6,6327,a3d9,1675938793,2.74000001,333,45286,20991,33.41505051,35.14578629,70.49913788,200,-0.018293235,0.046900958,-0.042831101,0.997813165,4.933908939,-0.554560781,0.011987017,0.047774721,-0.016020546,-0.036644556,0.176355988,0.156609267,-0.011232376,0.470999986,-0.087674686,0,0,0,1,0
6,6328,a3d9,1675938793,2.74000001,333,45286,20991,33.41505432,35.14578629,70.49184418,200,-0.017396683,0.045534436,-0.042173315,0.997920513,4.945940495,-0.544649243,0.010305995,0.110884182,-0.031256914,-0.004990704,0.092844367,0.082030833,0.048185349,0.470999986,-0.086207123,0,0,0,1,0
6,6329,a3d9,1675938793,2.74000001,333,45365,20991,33.41505814,35.14578247,70.49897766,200,-0.016859824,0.043674197,-0.04112858,0.998056471,4.955610275,-0.529693007,0.013279049,0.079785794,-0.04653281,-0.021785934,0.115461484,0.182038546,0.029742241,0.470999986,-0.083977896,0,0,0,1,0
6,6330,a3d9,1675938793,2.74000001,333,45365,20991,33.41506577,35.14578247,70.49249268,200,-0.015545848,0.043188009,-0.040411998,0.998128235,4.963207722,-0.515405774,0.013360677,0.077355027,-0.028182672,-0.027651694,0.116680831,0.190172911,-0.040872574,0.470999986,-0.082406336,0,0,0,1,0
6,6331,a3d9,1675938793,2.74000001,333,45443,20991,33.41506958,35.14578247,70.49871826,200,-0.015573714,0.042043775,-0.039612431,0.998208702,4.973845482,-0.499511063,0.013203684,0.056420133,0.000454685,-0.02656721,0.087653376,0.148217469,0.069095612,0.470999986,-0.080756604,0,0,0,1,0
6,6332,a3d9,1675938794,2.74000001,333,45443,20991,33.41507339,35.14578247,70.49455261,200,-0.016024314,0.041659534,-0.038792718,0.998249888,4.97774744,-0.487351596,0.01359015,0.010583666,-0.03031949,0.033643406,0.081275418,0.149601206,0.032733917,0.470999986,-0.079133108,0,0,0,1,0
6,6333,a3d9,1675938794,2.74000001,333,45481,20991,33.41508102,35.14578247,70.4978714,200,-0.019809125,0.024785776,-0.037183635,0.998804629,4.99545145,-0.470712185,0.013824219,-0.10326001,-0.439281255,0.029543154,0.138059795,0.18475908,-0.02063179,0.470999986,-0.075418811,0,0,0,1,0
6,6334,a3d9,1675938794,2.74000001,333,45481,20991,33.41508484,35.14578247,70.49187469,200,-0.022552812,-0.010194891,-0.036586158,0.999023974,4.974807262,-0.448952734,0.006239957,-0.062770374,-1.746586442,-0.023705533,-0.066071406,0.235700279,-0.407873154,0.470999986,-0.072722752,0,0,0,1,0
6,6335,a3d9,1675938794,2.890000105,333,45507,20991,33.41509247,35.14578247,70.48874664,200,-0.012514873,-0.138869166,-0.03578756,0.989584744,4.840516567,-0.38778919,-0.104882829,0.33738327,-1.722126842,-0.005284118,-2.345035553,0.547681332,-1.079040527,0.470999986,-0.070127747,0,0,0,1,0
6,6451,a3d9,1675938805,6.039999962,289,45476,18263,33.41505051,35.14561844,70.17035675,200,-0.016822305,0.05451832,-0.121982917,0.99089098,4.628396034,-1.280069232,-0.04181429,-0.069886722,-0.0936606,0.049869128,0.373695016,-0.184990838,0.137067795,0.470999986,-0.247420967,0,0,0,1,0
6,6452,a3d9,1675938806,6.039999962,289,45476,18263,33.41505432,35.14561844,70.15496063,200,-0.022467125,0.054134268,-0.118979461,0.99116528,4.648391724,-1.294845223,-0.029272327,-0.173282027,-0.056836423,0.134863138,0.328980297,-0.118508473,0.066209793,0.470999986,-0.241889553,0,0,0,1,0
6,6453,a3d9,1675938806,6.039999962,289,45464,18263,33.41506195,35.14561844,70.15505219,200,-0.027004343,0.050607592,-0.11503657,0.991703689,4.709327221,-1.279583454,-0.026039008,0.016704975,-0.075093314,0.06276229,0.536024332,0.25378713,0.159155846,0.470999986,-0.234059389,0,0,0,1,0
6,6454,a3d9,1675938806,6.039999962,289,45464,18263,33.41506577,35.14561462,70.13879395,200,-0.022366039,0.044951346,-0.113186702,0.992304325,4.748322964,-1.260325551,-0.006713441,0.102111302,-0.109365098,0.05212608,0.432212293,0.208926558,0.375687599,0.470999986,-0.229456981,0,0,0,1,0
6,6455,a3d9,1675938806,6.619999886,290,45455,18263,33.41507339,35.14561462,70.14446259,200,-0.020010278,0.037985194,-0.110996544,0.992892981,4.771342278,-1.267418742,0.014265753,-0.108998924,-0.051661365,0.01520367,0.14798972,-0.049531236,0.080190659,0.470999986,-0.224374818,0,0,0,1,0
6,6456,a3d9,1675938806,6.619999886,290,45455,18263,33.41507721,35.14561462,70.13051605,200,-0.022899885,0.036405019,-0.1091168,0.99309808,4.777918339,-1.275955319,0.017960908,-0.026239796,-0.002783889,0.021346388,0.078207061,0.00676681,0.304757118,0.470999986,-0.220677898,0,0,0,1,0
6,6457,a3d9,1675938806,6.619999886,290,45460,18495,33.41508484,35.14561081,70.13617706,200,-0.025545077,0.037149131,-0.106167272,0.993325651,4.782558918,-1.253198028,0.019026428,-0.009473636,0.078303985,0.155914813,0.03364148,0.235237598,-0.014532089,0.470999986,-0.214966372,0,0,0,1,0
6,6458,a3d9,1675938806,6.619999886,290,45460,18495,33.41508865,35.14561081,70.12231445,200,-0.023731979,0.039629996,-0.105383135,0.993358254,4.789608479,-1.238779545,0.016400851,0.001890606,0.035439432,-0.05256499,0.103584066,0.221099451,-0.035646439,0.470999986,-0.213440905,0,0,0,1,0
6,6459,a3d9,1675938806,6.619999886,290,45459,18495,33.41509247,35.14561081,70.13141632,200,-0.020183923,0.043063398,-0.104826838,0.993352652,4.813282967,-1.222953558,0.011519914,0.085329682,0.000899696,-0.067637146,0.233450651,0.134515807,-0.230438232,0.470999986,-0.212287168,0,0,0,1,0
6,6460,a3d9,1675938806,6.619999886,290,45459,18495,33.41509628,35.14561081,70.11756134,200,-0.018178293,0.044667434,-0.104660153,0.993338108,4.832068443,-1.221077561,0.001032538,0.000388089,0.0405741,0.088429801,0.216222808,0.00280916,-0.13490963,0.470999986,-0.211891776,0,0,0,1,0
6,6461,a3d9,1675938806,6.619999886,290,45454,18495,33.41510391,35.14560699,70.1271286,200,-0.018075584,0.043553982,-0.104850486,0.993369341,4.859971523,-1.224557519,-0.022017401,-0.020178651,0.005412881,0.023970405,0.246214449,0.084011972,-0.194396973,0.470999986,-0.212196028,0,0,0,1,0
6,6462,a3d9,1675938807,6.619999886,290,45454,18495,33.41510773,35.14560699,70.11223602,200,-0.017753679,0.040937867,-0.104451306,0.993528485,4.87736702,-1.220333695,-0.034477875,0.020086881,-0.051476952,-0.022857523,0.21197775,0.105579838,-0.018649101,0.470999986,-0.211203738,0,0,0,1,0
6,6463,a3d9,1675938807,6.619999886,290,45445,18495,33.41511536,35.14560699,70.11276245,200,-0.017448129,0.037649002,-0.103130683,0.993801892,4.892598629,-1.215307117,-0.031354938,0.083437689,-0.025511157,0.080272742,0.138946921,0.060211204,0.012491226,0.470999986,-0.208325736,0,0,0,1,0
6,6464,a3d9,1675938807,6.619999886,290,45445,18495,33.41511917,35.14560318,70.09768677,200,-0.017648784,0.036921099,-0.102354243,0.993905902,4.897213459,-1.210215569,-0.031494714,0.014327511,-0.048630226,-0.005064979,0.037241671,0.08919099,0.093737602,0.470999986,-0.206733995,0,0,0,1,0
6,6465,a3d9,1675938807,7.019999981,291,45424,18495,33.4151268,35.14560318,70.10410309,200,-0.018337872,0.036378019,-0.101887807,0.993961394,4.905789852,-1.199659705,-0.032352738,-0.065638147,0.050056539,0.018828658,0.093801297,0.177282289,0.091061592,0.470999986,-0.205810298,0,0,0,1,0
6,6466,a3d9,1675938807,7.019999981,291,45424,18495,33.41513062,35.14560318,70.0908432,200,-0.018042194,0.037379883,-0.101699039,0.993948936,4.909390926,-1.192415357,-0.030124901,-0.024807651,0.018459445,-0.027776616,0.012812634,0.06344676,0.017377853,0.470999986,-0.205468453,0,0,0,1,0
6,6467,a3d9,1675938807,7.019999981,291,45423,18629,33.41513443,35.14559937,70.09519958,200,-0.020278718,0.039258659,-0.101234749,0.993880808,4.918911934,-1.190158248,-0.030642055,-0.060049057,-0.007214467,-0.011775265,0.113663122,0.09241128,-0.139629364,0.470999986,-0.204808183,0,0,0,1,0
6,6468,a3d9,1675938807,7.019999981,291,45423,18629,33.41514206,35.14559937,70.08319092,200,-0.021895994,0.039593577,-0.10010311,0.993947804,4.929552555,-1.182697415,-0.029331338,0.010073425,0.012321537,-0.045862179,0.110688038,0.137998596,-0.023763657,0.470999986,-0.20266974,0,0,0,1,0
6,6469,a3d9,1675938807,7.019999981,291,45457,18629,33.41514587,35.14559937,70.0892868,200,-0.022108782,0.037395231,-0.098473281,0.994191051,4.945655346,-1.162051916,-0.026659459,0.047293916,-0.070735559,-0.007529106,0.139381438,0.20766902,0.105585098,0.470999986,-0.199257536,0,0,0,1,0
6,6470,a3d9,1675938807,7.019999981,291,45457,18629,33.41514969,35.14559937,70.07550812,200,-0.020838538,0.032938562,-0.097193114,0.994502068,4.958320141,-1.144516349,-0.017712913,0.105098024,-0.130564749,0.094293632,0.147146463,0.230072409,0.191752434,0.470999986,-0.196317696,0,0,0,1,0
6,6471,a3d9,1675938807,7.019999981,291,45502,18629,33.41515732,35.14559555,70.08556366,200,-0.022079231,0.02863005,-0.095570974,0.994765818,4.960321426,-1.123637676,0.005074799,-0.073046312,-0.084974408,0.03710765,-0.024146847,0.223576412,0.196512222,0.470999986,-0.192865951,0,0,1,1,0
6,6472,a3d9,1675938808,7.019999981,291,45502,18629,33.41516113,35.14559555,70.07978821,200,-0.023550713,0.015253581,-0.094505794,0.99512881,4.969477177,-1.107495308,0.013277575,-0.067180321,-0.406706423,-0.026863398,0.093771271,0.216247112,0.330457687,0.470999986,-0.190014095,0,0,1,1,0
6,6473,a3d9,1675938808,7.019999981,291,45539,18629,33.41516876,35.14559555,70.08602905,200,-0.031369511,-0.02399548,-0.086135812,0.995500267,4.923496723,-1.064908266,0.010570428,-0.247577444,-1.415865779,0.574867606,-0.337165505,0.372212291,-0.772016525,0.470999986,-0.171064973,0,0,1,1,0
6,6474,a3d9,1675938808,7.019999981,291,45539,18629,33.41517258,35.14559555,70.07348633,200,-0.044401236,-0.097470127,-0.042035665,0.993358493,4.884821415,-1.01775682,-0.0900454,-0.018730823,-2.15133357,1.469512224,-0.964515209,0.867455125,-0.678833008,0.470999986,-0.076433976,0,0,1,1,0
6,6651,a3d9,1675938825,2.150000095,121,45381,18807,33.41503525,35.14562607,70.16835022,200,-0.01722618,0.053445097,-0.097750127,0.993625581,4.62822485,-1.063594937,-0.021254905,-0.028394232,-0.077709712,0.106055729,0.35967949,0.097400211,-0.063529968,0.470999986,-0.198440466,0,0,0,1,0
6,6652,a3d9,1675938826,2.150000095,121,45381,18807,33.41503906,35.14562607,70.15743256,200,-0.016664235,0.052122738,-0.09668348,0.99380976,4.653402328,-1.060833216,-0.020769902,0.040845372,-0.076606974,0.003504137,0.317143559,0.101043165,-0.036739349,0.470999986,-0.196146791,0,0,0,1,0
6,6653,a3d9,1675938826,2.150000095,121,45371,18807,33.41504669,35.14562225,70.16082001,200,-0.017101521,0.051288512,-0.095951349,0.99391669,4.688467979,-1.05359149,-0.016201328,-0.011341818,0.003855477,-0.008679835,0.319522113,0.127515674,0.037265778,0.470999986,-0.194660497,0,0,0,1,0
6,6654,a3d9,1675938826,2.150000095,121,45371,18807,33.41505051,35.14562225,70.14685059,200,-0.017497379,0.051459748,-0.095273577,0.993966162,4.709679604,-1.045794129,-0.016225947,-0.071351923,0.002673075,0.047520559,0.274261177,0.088282734,-0.022296906,0.470999986,-0.193343814,0,0,0,1,0
6,6655,a3d9,1675938826,1.950000048,112,45355,18807,33.41505814,35.14562225,70.15244293,200,-0.017822664,0.050793041,-0.094597161,0.994059265,4.743070126,-1.034685016,-0.017993089,0.018810431,-0.026300125,0.034951512,0.289818108,0.117414564,0.008440018,0.470999986,-0.1919689,0,0,0,1,0
6,6656,a3d9,1675938826,1.950000048,112,45355,18807,33.41506195,35.14562225,70.13774872,200,-0.016702391,0.050593182,-0.094561383,0.994092286,4.764230251,-1.025638223,-0.018608058,0.053008333,-0.02685043,-0.106122285,0.298792452,0.151507407,-0.058629036,0.470999986,-0.191775705,0,0,0,1,0
6,6657,a3d9,1675938826,1.950000048,112,45339,19020,33.41506577,35.14561844,70.13650513,200,-0.015127477,0.050835911,-0.094022244,0.994156241,4.791937351,-1.018584132,-0.029718924,-0.041877247,0.055722766,0.020243835,0.227779806,0.051058542,-0.132177353,0.470999986,-0.190550727,0,0,0,1,0
6,6658,a3d9,1675938826,1.950000048,112,45339,19020,33.41506958,35.14561844,70.1193924,200,-0.013666367,0.05139365,-0.09456256,0.994097531,4.812304974,-1.014492393,-0.036896408,0.057535887,-0.028144617,-0.056432568,0.291463077,0.047553856,0.019244194,0.470999986,-0.19152886,0,0,0,1,0
6,6659,a3d9,1675938826,1.950000048,112,45341,19020,33.41507721,35.14561844,70.12286377,200,-0.0121952,0.048542798,-0.094480716,0.994267702,4.847258568,-1.015988946,-0.042697672,-0.024148503,-0.047214989,0.03958232,0.283893973,-0.042265426,-0.023235321,0.470999986,-0.191067556,0,0,0,1,0
6,6660,a3d9,1675938826,1.950000048,112,45341,19020,33.41508102,35.14561844,70.10391998,200,-0.012171753,0.045720819,-0.094400086,0.994409442,4.863139153,-1.022558212,-0.041813329,0.031063013,-0.043503478,0.019227352,0.2157152,-0.0622545,0.063242912,0.470999986,-0.190758695,0,0,0,1,0
6,6661,a3d9,1675938826,1.950000048,112,45348,19020,33.41508865,35.14561844,70.0980072,200,-0.014731274,0.043522902,-0.093393445,0.994568467,4.874450684,-1.028544664,-0.037457213,-0.142785132,-0.033547111,0.06221246,0.113469318,-0.014515884,-0.067516327,0.470999986,-0.188835532,0,0,0,1,0
6,6662,a3d9,1675938827,1.950000048,112,45348,19020,33.41509247,35.14561462,70.07971954,200,-0.016319975,0.042519934,-0.092232853,0.994695365,4.881628036,-1.026206613,-0.034152094,0.03146489,-0.024566058,-0.016808985,0.107607991,0.073832519,0.044437408,0.470999986,-0.186573842,0,0,0,1,0
6,6663,a3d9,1675938827,1.950000048,112,45330,19020,33.4151001,35.14561462,70.08228302,200,-0.017295336,0.041601319,-0.091118202,0.994820416,4.891537189,-1.017533898,-0.023359118,-0.070365451,0.012577027,0.029888399,0.079566911,0.092079356,0.005486488,0.470999986,-0.184355993,0,0,0,1,0
6,6664,a3d9,1675938827,1.950000048,112,45330,19020,33.41510391,35.14561462,70.06593323,200,-0.017598288,0.041184854,-0.090401947,0.994897783,4.897653103,-1.01137948,-0.021079857,-0.005348899,-0.022194033,0.02659234,0.075352423,0.099208675,0.05987072,0.470999986,-0.182914386,0,0,0,1,0
6,6665,a3d9,1675938827,1.789999962,98,45314,19020,33.41511154,35.14561462,70.06715393,200,-0.018102793,0.040774513,-0.089586161,0.994979441,4.907408237,-1.000246167,-0.012862794,0.010057782,-0.007737741,-0.034398984,0.086643346,0.129291967,0.138566971,0.470999986,-0.181288266,0,0,0,1,0
6,6666,a3d9,1675938827,1.789999962,98,45314,19020,33.41511536,35.14561081,70.05225372,200,-0.017936153,0.040193621,-0.089293242,0.99503243,4.909888268,-0.996145368,-0.004733605,-0.052810844,-0.016958114,0.070753321,0.03031132,0.046943888,0.08214283,0.470999986,-0.180652636,0,0,0,1,0
6,6667,a3d9,1675938827,1.789999962,98,45324,19163,33.41511917,35.14561081,70.05670929,200,-0.016979834,0.041374225,-0.089346513,0.994996011,4.912075996,-0.979802608,0.003837308,0.098979264,0.041709051,-0.070752338,0.051827393,0.19176352,-0.017982483,0.470999986,-0.180752676,0,0,0,1,0
6,6668,a3d9,1675938827,1.789999962,98,45324,19163,33.41512299,35.14561081,70.04624176,200,-0.01618382,0.042667381,-0.089273773,0.994961202,4.916371822,-0.969478488,0.004078001,-0.015406098,0.059540723,-0.022727186,0.061824024,0.148944229,0.00459671,0.470999986,-0.180614485,0,0,0,1,0
6,6669,a3d9,1675938827,1.789999962,98,45302,19163,33.41513062,35.14561081,70.05283356,200,-0.015649801,0.043565314,-0.088293217,0.995018303,4.926220894,-0.955589294,0.008628007,0.038699348,-0.023472933,-0.007440302,0.109165743,0.114676937,0.082093239,0.470999986,-0.17864605,0,0,0,1,0
6,6670,a3d9,1675938827,1.789999962,98,45302,19163,33.41513443,35.14560699,70.0428009,200,-0.015609073,0.043373313,-0.087719098,0.995078146,4.934495449,-0.945900142,0.007668113,0.056837257,0.042538732,0.00323904,0.101877563,0.141954467,0.101041794,0.470999986,-0.177476718,0,0,0,1,0
6,6671,a3d9,1675938827,1.789999962,98,45300,19163,33.41514206,35.14560699,70.05194092,200,-0.013982846,0.041184865,-0.087103836,0.995249331,4.945090771,-0.932577729,0.01319709,0.048519641,-0.072437823,0.056705274,0.082670957,0.10191077,0.078006744,0.470999986,-0.175993724,0,0,0,1,0
6,6672,a3d9,1675938828,1.789999962,98,45300,19163,33.41514587,35.14560699,70.04649353,200,-0.01385053,0.039345503,-0.086463295,0.995381415,4.94604969,-0.932620347,0.016580988,0.061347675,-0.001244228,-0.004868556,0.011919745,0.000119971,0.009849548,0.470999986,-0.174605206,0,0,1,1,0
6,6673,a3d9,1675938828,1.789999962,98,45332,19163,33.4151535,35.14560699,70.05104828,200,-0.017549116,0.031894855,-0.084538147,0.995755017,4.946116447,-0.924683094,0.014705595,-0.097238027,-0.399540424,0.030581411,0.140943497,0.074410632,0.147482872,0.470999986,-0.17061614,0,0,1,1,0
6,6674,a3d9,1675938828,1.789999962,98,45332,19163,33.41515732,35.14560699,70.04795837,200,-0.019994762,0.013327453,-0.082595803,0.996293366,4.940526962,-0.906598806,0.020108575,-0.020630678,-0.700684249,0.069025308,-0.164863229,0.239305079,0.421717644,0.470999986,-0.165917111,0,0,1,1,0
6,6675,a3d9,1675938828,1.389999986,64,45323,19163,33.41516495,35.14560318,70.05065155,200,-0.03032802,-0.089780703,-0.034693766,0.994894981,4.890546322,-0.83773458,-0.044373285,-0.031932186,-2.279071331,1.22216785,-0.898135781,0.84148097,-0.056059837,0.470999986,-0.064697566,0,0,1,1,0
6,6676,a3d9,1675938828,1.389999986,64,45323,19163,33.41516876,35.14560318,70.04527283,200,-0.047338985,-0.16337499,0.021127161,0.98520112,4.628324509,-0.802728653,-0.060363177,-0.162674516,-1.576819897,1.444810987,-3.613296032,0.502893806,0.055259705,0.470999986,0.060300643,0,0,1,1,0
6,6839,a3d9,1675938844,5.519999981,321,45374,17929,33.41504288,35.14562607,70.13789368,200,-0.017017003,0.053310346,-0.103924394,0.993009627,4.636565685,-1.147687554,-0.028445613,0.005696773,-0.088828407,0.092622466,0.445721805,0.117590412,0.124675751,0.470999986,-0.210868418,0,0,0,1,0
6,6840,a3d9,1675938844,5.519999981,321,45374,17929,33.41504669,35.14562607,70.12216949,200,-0.016039938,0.050487913,-0.102706172,0.99330014,4.662958622,-1.139985323,-0.024208492,0.103086784,-0.088569149,0.0931485,0.34152627,0.127934247,-0.00652504,0.470999986,-0.208129609,0,0,0,1,0
6,6841,a3d9,1675938844,5.519999981,321,45383,17929,33.41505432,35.14562607,70.12358093,200,-0.013976241,0.046858482,-0.10219498,0.993561864,4.696229935,-1.133169532,-0.019530199,0.039019901,-0.086046606,-0.021272223,0.271289647,0.065151952,0.008883476,0.470999986,-0.206690009,0,0,0,1,0
6,6842,a3d9,1675938845,5.519999981,321,45383,17929,33.41505814,35.14562225,70.1085434,200,-0.013967089,0.046232026,-0.101905003,0.993621111,4.712866783,-1.130653977,-0.022082154,0.045652691,0.010787732,-0.087164193,0.222680986,0.084229663,0.016864777,0.470999986,-0.206069212,0,0,0,1,0
6,6843,a3d9,1675938845,5.519999981,321,45373,17929,33.41506577,35.14562225,70.11158752,200,-0.014275393,0.047363162,-0.10243956,0.993508458,4.738950729,-1.131949306,-0.014864398,-0.033357251,0.070999347,-0.04102711,0.22248292,-0.011945501,0.114300728,0.470999986,-0.207238854,0,0,0,1,0
6,6844,a3d9,1675938845,5.519999981,321,45373,17929,33.41506958,35.14562225,70.09657288,200,-0.015250421,0.048078764,-0.10260608,0.993442416,4.757486343,-1.13557446,-0.010785515,-0.060768098,0.022921961,0.029858492,0.233630806,-0.060906075,-0.050731659,0.470999986,-0.207705286,0,0,0,1,0
6,6845,a3d9,1675938845,3.74000001,346,45374,17929,33.41507339,35.14562225,70.09894562,200,-0.017341057,0.047047805,-0.102632135,0.993454814,4.787503719,-1.145932674,-0.008993308,0.005589569,-0.072589047,0.092905812,0.290602982,-0.012281775,0.090787888,0.470999986,-0.20788263,0,0,0,1,0
6,6846,a3d9,1675938845,3.74000001,346,45374,17929,33.41507721,35.14561844,70.08397675,200,-0.018697333,0.04488774,-0.102476187,0.993546247,4.807470322,-1.140501738,-0.008179214,-0.000432227,-0.083528109,-0.018504154,0.223885596,0.082898483,0.046617508,0.470999986,-0.207547219,0,0,0,1,0
6,6847,a3d9,1675938845,3.74000001,346,45390,18052,33.41508484,35.14561844,70.08713531,200,-0.020250175,0.043406442,-0.101315118,0.993700683,4.823675156,-1.13094306,-0.007920034,-0.078146324,-0.00049071,0.008142196,0.133908898,0.093014829,-0.027783394,0.470999986,-0.205238689,0,0,0,1,0
6,6848,a3d9,1675938845,3.74000001,346,45390,18052,33.41508865,35.14561844,70.07402039,200,-0.020429913,0.042754956,-0.100286655,0.993829548,4.834551334,-1.124863744,-0.00800531,-0.061158136,-0.024705699,0.002307454,0.124913812,0.039647773,0.017584801,0.470999986,-0.203137861,0,0,0,1,0
6,6849,a3d9,1675938845,3.74000001,346,45374,18052,33.41509628,35.14561462,70.07691956,200,-0.020926664,0.041418098,-0.099473722,0.99395752,4.846640587,-1.120302081,-0.003057842,0.073234379,-0.018784858,0.041142866,0.118014649,0.058591228,0.049929619,0.470999986,-0.201450901,0,0,0,1,0
6,6850,a3d9,1675938845,3.74000001,346,45374,18052,33.4151001,35.14561462,70.06628418,200,-0.020427266,0.041324016,-0.099369287,0.993982315,4.849201202,-1.116054535,-0.000525497,0.035501372,-0.025791589,-0.014949228,0.078641884,0.075852841,-0.010528564,0.470999986,-0.201195817,0,0,0,1,0
6,6851,a3d9,1675938845,3.74000001,346,45334,18052,33.41510773,35.14561462,70.06780243,200,-0.021105992,0.042718958,-0.098848097,0.993961096,4.85924387,-1.113487244,0.005333009,-0.04248032,0.063118979,-0.001962161,0.112722717,0.061432101,0.042721748,0.470999986,-0.200291773,0,0,0,1,0
6,6852,a3d9,1675938846,3.74000001,346,45334,18052,33.41511154,35.14561462,70.05930328,200,-0.02104535,0.043253958,-0.098552227,0.993968606,4.870242596,-1.10767293,0.005963678,-0.108247802,0.023131518,0.006222885,0.169449002,0.047438212,0.115386009,0.470999986,-0.199726973,0,0,0,1,0
6,6853,a3d9,1675938846,3.74000001,346,45326,18052,33.41511536,35.14561081,70.06710815,200,-0.022201454,0.043186631,-0.098245904,0.993976712,4.89041996,-1.103181005,0.007382471,0.031107079,-0.036487285,0.035929367,0.156108648,0.049638063,0.081582069,0.470999986,-0.199198796,0,0,0,1,0
6,6854,a3d9,1675938846,3.74000001,346,45326,18052,33.41512299,35.14561081,70.0598526,200,-0.021472771,0.042408679,-0.098103613,0.99404031,4.901969433,-1.096942782,0.004910918,0.061692465,-0.024848819,-0.117655352,0.155574799,0.104713619,0.028969765,0.470999986,-0.19880062,0,0,0,1,0
6,6855,a3d9,1675938846,4.539999962,344,45352,18052,33.4151268,35.14561081,70.0681839,200,-0.021527002,0.04008941,-0.097446918,0.994199932,4.915556431,-1.093084931,0.007336738,-0.082035236,0.002991816,0.021087997,0.090630427,0.041991081,0.050497055,0.470999986,-0.197327385,0,0,0,1,0
6,6856,a3d9,1675938846,4.539999962,344,45352,18052,33.41513062,35.14561081,70.06215668,200,-0.022449367,0.039028019,-0.096311532,0.994332433,4.917499065,-1.09014523,0.008153768,-0.020812673,0.011170766,0.121211119,0.03767813,0.030045802,0.005903244,0.470999986,-0.19503907,0,0,0,1,0
6,6857,a3d9,1675938846,4.539999962,344,45357,18124,33.41513824,35.14560699,70.06768036,200,-0.024457518,0.03822168,-0.094486356,0.994491458,4.917077541,-1.078635454,0.007478016,0.044891797,-0.026414797,0.030350978,0.012969112,0.157499671,0.040776253,0.470999986,-0.191454507,0,0,0,1,0
6,6858,a3d9,1675938846,4.539999962,344,45357,18124,33.41514206,35.14560699,70.06254578,200,-0.024676491,0.038540453,-0.093082957,0.994606078,4.916835785,-1.062904954,0.00882292,0.037979238,0.030528985,0.007394206,0.00928076,0.220939219,0.127198219,0.470999986,-0.188668883,0,0,0,1,0
6,6859,a3d9,1675938846,4.539999962,344,45354,18124,33.41514969,35.14560699,70.07467651,200,-0.025297016,0.035502363,-0.091284126,0.994870245,4.922635078,-1.042930722,0.012751414,-0.030611036,-0.295199573,0.05680481,0.176217824,0.111099303,0.224020004,0.470999986,-0.184880442,0,0,1,1,0
6,6860,a3d9,1675938846,4.539999962,344,45354,18124,33.4151535,35.14560699,70.07187653,200,-0.027826771,0.018731577,-0.090374514,0.995342791,4.929746628,-1.033563495,0.017366834,-0.096638188,-0.497606486,0.113825954,0.010311314,0.139880806,0.217750549,0.470999986,-0.182047835,0,0,1,1,0
6,6861,a3d9,1675938846,4.539999962,344,45356,18124,33.41516113,35.14560318,70.08100891,200,-0.040061757,-0.044352464,-0.067109875,0.995953918,4.896393776,-1.007462621,-0.024348352,-0.01039127,-1.95468998,1.083980322,-0.358356804,0.444299966,-0.932638168,0.470999986,-0.131073294,0,0,1,1,0
6,6862,a3d9,1675938847,4.539999962,344,45356,18124,33.41516495,35.14560318,70.07250977,200,-0.041254062,-0.118933715,-0.01308921,0.991958439,4.771192551,-0.929080486,-0.065513238,0.023383142,-1.622500539,1.441739321,-2.082633018,0.794964433,-0.261642456,0.470999986,-0.016629574,0,0,1,1,0
6,7028,a3d9,1675938863,3.089999914,37,45055,18331,33.41505814,35.14562988,70.17269135,200,-0.004882847,0.061600976,-0.132885993,0.989203095,4.628334522,-1.385655403,-0.072827399,0.105450116,-0.00691722,-0.145101875,0.420011818,0.08413893,-0.017137527,0.470999986,-0.2686609,0,0,0,1,0
6,7029,a3d9,1675938863,3.089999914,37,45192,18331,33.41506577,35.14562988,70.17279053,200,-0.002118153,0.060245316,-0.133029908,0.989277065,4.675824165,-1.390449524,-0.080662347,0.031332392,-0.022725688,0.034028329,0.409906685,-0.040977005,-0.137698174,0.470999986,-0.268552307,0,0,0,1,0
6,7030,a3d9,1675938863,3.089999914,37,45192,18331,33.41506958,35.14562607,70.15019226,200,-0.00121806,0.056891154,-0.132737532,0.989516377,4.706841946,-1.399121165,-0.091690734,-0.074783221,-0.095420524,0.0360693,0.393593431,-0.061463684,-0.143176079,0.470999986,-0.267688174,0,0,0,1,0
6,7031,a3d9,1675938863,3.089999914,37,45275,18331,33.41507339,35.14562607,70.14514923,200,-0.001038359,0.052057348,-0.132234931,0.989849925,4.74369812,-1.405389309,-0.087770328,-0.03884802,-0.078811966,0.001635704,0.288958758,0.007330046,-0.074156761,0.470999986,-0.266428894,0,0,0,1,0
6,7032,a3d9,1675938864,3.089999914,37,45275,18331,33.41507721,35.14562607,70.11971283,200,-0.00217045,0.049817838,-0.131886765,0.990009785,4.762320042,-1.411395788,-0.089804083,-0.036565088,-0.108686015,-0.079757363,0.233581454,-0.042882975,-0.038362503,0.470999986,-0.265737062,0,0,0,1,0
6,7033,a3d9,1675938864,3.089999914,37,45322,18331,33.41508484,35.14562225,70.11448669,200,-0.00514804,0.048401661,-0.131157458,0.990165889,4.78707695,-1.411386728,-0.085131221,0.028775878,0.01569142,0.015163904,0.220385373,0.071161896,0.097903252,0.470999986,-0.264475944,0,0,0,1,0
6,7034,a3d9,1675938864,3.089999914,37,45322,18331,33.41508865,35.14562225,70.08982849,200,-0.006956548,0.047624983,-0.13042666,0.990289032,4.803779125,-1.40767765,-0.077681459,-0.071962483,-0.030735092,0.118327379,0.206857592,0.065689355,0.080570221,0.470999986,-0.263123866,0,0,0,1,0
6,7035,a3d9,1675938864,1.779999971,83,45362,18331,33.41509628,35.14562225,70.0877533,200,-0.007525198,0.045431107,-0.129809216,0.990469038,4.830996513,-1.39802587,-0.064021133,0.094476365,-0.058719222,-0.029187066,0.258048117,0.125582606,0.136342049,0.470999986,-0.261813728,0,0,0,1,0
6,7036,a3d9,1675938864,1.779999971,83,45362,18331,33.4151001,35.14561844,70.0670166,200,-0.007178895,0.04306148,-0.129203573,0.990656674,4.849070549,-1.389147639,-0.053808343,0.001448414,0.004130333,0.001041446,0.208408162,0.134020716,0.162420273,0.470999986,-0.260443911,0,0,0,1,0
6,7037,a3d9,1675938864,1.779999971,83,45360,18241,33.41510773,35.14561844,70.06886292,200,-0.008766122,0.040421769,-0.127952009,0.990917504,4.864692211,-1.381312132,-0.039648704,-0.085919656,-0.035746649,0.00749272,0.142245054,0.076767877,0.185951233,0.470999986,-0.257912722,0,0,0,1,0
6,7038,a3d9,1675938864,1.779999971,83,45360,18241,33.41511154,35.14561844,70.05190277,200,-0.009905688,0.039915413,-0.127051339,0.99104321,4.874197483,-1.368545771,-0.030052997,0.062786281,0.012021887,-0.017618248,0.131718606,0.196465194,0.334090233,0.470999986,-0.256153964,0,0,0,1,0
6,7039,a3d9,1675938864,1.779999971,83,45385,18241,33.41511536,35.14561462,70.0533371,200,-0.009989298,0.039665837,-0.126409277,0.991134465,4.890215397,-1.339467525,-0.01609198,-0.028083609,-0.02639099,0.089932919,0.149941429,0.288615763,0.026614189,0.470999986,-0.25485051,0,0,0,1,0
6,7040,a3d9,1675938864,1.779999971,83,45385,18241,33.41511917,35.14561462,70.0426178,200,-0.007496369,0.039139643,-0.125770584,0.991258621,4.902019024,-1.319598675,-0.008436769,0.081133679,-0.061604723,0.017648857,0.181672156,0.262643099,0.147766113,0.470999986,-0.253350124,0,0,0,1,0
6,7041,a3d9,1675938864,1.779999971,83,45403,18241,33.4151268,35.14561462,70.05028534,200,-0.004603293,0.037080731,-0.125173613,0.991430998,4.918334007,-1.298297048,0.00322856,0.059070222,0.00048777,0.017159348,0.130462766,0.18291533,0.081889153,0.470999986,-0.251850887,0,0,0,1,0
6,7042,a3d9,1675938865,1.779999971,83,45403,18241,33.41513062,35.14561462,70.045578,200,-0.00178589,0.036022529,-0.124435328,0.991572022,4.926089287,-1.2879107,0.008474883,0.032187898,-0.002971928,0.089913808,0.096337877,0.094793305,0.019598961,0.470999986,-0.250126378,0,0,0,1,0
6,7043,a3d9,1675938865,1.779999971,83,45428,18241,33.41513824,35.14561081,70.05245972,200,-0.002317959,0.035465293,-0.12378896,0.99167186,4.934734821,-1.283557773,0.020807575,-0.032022513,-0.033006039,0.02216221,0.09251377,0.051886264,0.076278687,0.470999986,-0.24884073,0,0,0,1,0
6,7044,a3d9,1675938865,1.779999971,83,45428,18241,33.41514206,35.14561081,70.05157471,200,-0.003869712,0.034658533,-0.123388529,0.991745472,4.939933777,-1.276258588,0.018788528,-0.011026883,-0.049827054,-0.108897835,0.074591264,0.132338122,-0.110316277,0.470999986,-0.248110934,0,0,0,1,0
6,7045,a3d9,1675938865,2.309999943,159,45440,18241,33.41514969,35.14561081,70.05755615,200,-0.002896244,0.032241747,-0.122906528,0.991890132,4.944157124,-1.259665012,0.0185476,-0.053933293,-0.023847034,-0.013189978,-0.001982444,0.10690403,-0.166239738,0.470999986,-0.246999712,0,0,0,1,0
6,7046,a3d9,1675938865,2.309999943,159,45440,18241,33.4151535,35.14560699,70.0587616,200,-0.002477361,0.027752774,-0.122213632,0.992112637,4.944027424,-1.251194596,0.017038383,-0.012675574,-0.337564886,0.044888828,0.069602162,0.067561343,0.096574783,0.470999986,-0.245454816,0,0,1,1,0
6,7047,a3d9,1675938865,2.309999943,159,45428,18029,33.41516113,35.14560699,70.07092285,200,-0.005624396,-0.003765277,-0.122705027,0.992420077,4.930668354,-1.237556696,0.033569168,0.001736884,-0.771274924,0.018320108,-0.278013051,0.185207993,0.520102501,0.470999986,-0.245990426,0,0,1,1,0
6,7048,a3d9,1675938865,2.309999943,159,45428,18029,33.41516495,35.14560699,70.07608032,200,-0.021216549,-0.060281195,-0.10242746,0.992685556,4.888794422,-1.225981474,0.013998074,-0.193885818,-2.025006771,1.06596446,-0.416426957,0.160033017,-1.063241959,0.470999986,-0.203768263,0,0,1,1,0
6,7217,a3d9,1675938882,14.92000008,279,45222,17780,33.41505051,35.1456337,70.14755249,200,-0.001656048,0.043096785,-0.131400511,0.990390718,4.636256218,-1.30890584,-0.013517446,-0.060943328,-0.085309699,0.029066011,0.328614146,0.099615179,-0.047924042,0.470999986,-0.264433769,0,0,0,1,0
6,7218,a3d9,1675938882,14.92000008,279,45222,17780,33.41505432,35.1456337,70.13785553,200,-0.001812895,0.04109766,-0.131658316,0.990441203,4.6502738,-1.307844639,-0.009512319,-0.120294377,-0.01427221,0.02324306,0.176669791,0.05417008,0.09958744,0.470999986,-0.264894538,0,0,0,1,0
6,7219,a3d9,1675938882,14.92000008,279,45201,17780,33.41506195,35.14562988,70.14162445,200,-0.001960326,0.043832783,-0.132106557,0.990263939,4.654426098,-1.299656034,0.004809097,-0.033881091,0.075697862,0.038461052,0.051274065,0.08741238,-0.105613708,0.470999986,-0.265915673,0,0,0,1,0
6,7220,a3d9,1675938882,14.92000008,279,45201,17780,33.41506577,35.14562988,70.12923431,200,-0.002380038,0.047183771,-0.131603867,0.990175962,4.6627841,-1.295659542,0.00320163,0.015897632,0.080168508,0.006162233,0.131034851,0.089385137,-0.046870232,0.470999986,-0.265070602,0,0,0,1,0
6,7221,a3d9,1675938882,14.92000008,279,45213,17780,33.41506958,35.14562988,70.13485718,200,-0.002354786,0.050414167,-0.130934328,0.990105569,4.687560081,-1.284512758,0.004018608,0.10626445,0.016665086,-0.06514661,0.271538794,0.102511458,-0.015634537,0.470999986,-0.263852664,0,0,0,1,0
6,7222,a3d9,1675938883,14.92000008,279,45213,17780,33.41507721,35.14562607,70.12512207,200,-0.002374111,0.051779948,-0.130208552,0.990130782,4.704737663,-1.278066874,-0.002268605,0.071326628,-0.038434803,-0.045583781,0.257062525,0.096111506,0.037202835,0.470999986,-0.262446311,0,0,0,1,0
6,7223,a3d9,1675938883,14.92000008,279,45228,17780,33.41508102,35.14562607,70.13681793,200,-0.000895702,0.051764008,-0.129440859,0.990234673,4.739407539,-1.270112872,-0.008436479,0.048768185,-0.000567937,0.07072778,0.349114656,0.023148173,-0.133872032,0.470999986,-0.260742998,0,0,0,1,0
6,7224,a3d9,1675938883,14.92000008,279,45228,17780,33.41508484,35.14562607,70.12243652,200,-0.000186581,0.049675751,-0.128676891,0.990441561,4.761733532,-1.266614199,-0.007521159,0.004155781,-0.076852903,0.070337832,0.323166281,0.022065915,0.094320297,0.470999986,-0.259041741,0,0,0,1,0
6,7225,a3d9,1675938883,6.090000153,289,45219,17780,33.41509247,35.14562225,70.12767029,200,-0.001308942,0.043019518,-0.127538085,0.990899384,4.788635731,-1.263645887,-0.005343113,-0.049911804,-0.058920525,0.003637711,0.220959693,0.061023019,0.176403046,0.470999986,-0.256590558,0,0,0,1,0
6,7226,a3d9,1675938883,6.090000153,289,45219,17780,33.41509628,35.14562225,70.11452484,200,-0.0033077,0.038343795,-0.126598716,0.991207123,4.795544624,-1.259504199,-0.005156003,0.053473845,-0.072143681,0.037490018,0.102193996,0.038688511,0.03347683,0.470999986,-0.254681987,0,0,0,1,0
6,7227,a3d9,1675938883,6.090000153,289,45215,17996,33.41510391,35.14562225,70.11434174,200,-0.00389039,0.037104666,-0.126518339,0.991262436,4.787979126,-1.241635084,-0.011182906,-0.029178925,0.049248736,-0.006139576,-0.060830787,0.126996592,0.025382042,0.470999986,-0.254517452,0,0,0,1,0
6,7228,a3d9,1675938883,6.090000153,289,45215,17996,33.41510773,35.14562225,70.10054779,200,-0.001117027,0.039900579,-0.126307935,0.991187692,4.784721851,-1.232666492,-0.016807199,0.097597294,0.05378025,-0.049585596,0.00668884,0.113129556,-0.260856628,0.470999986,-0.253982315,0,0,0,1,0
6,7229,a3d9,1675938883,6.090000153,289,45237,17996,33.41511154,35.14561844,70.10513306,200,0.00490593,0.045691695,-0.125870883,0.990981698,4.794577599,-1.233312249,-0.025054796,0.129429042,0.095701642,0.053292137,0.172168508,-0.066003069,0.042307854,0.470999986,-0.252761845,0,0,0,1,0
6,7230,a3d9,1675938883,6.090000153,289,45237,17996,33.41511536,35.14561844,70.09282684,200,0.006581644,0.045569953,-0.125942707,0.990968466,4.812970161,-1.248180747,-0.022078373,-0.087023422,0.002070225,-0.052797955,0.247686893,-0.175227851,-0.086669922,0.470999986,-0.252753184,0,0,0,1,0
6,7231,a3d9,1675938883,6.090000153,289,45257,17996,33.41512299,35.14561844,70.09994507,200,0.002081,0.041767366,-0.125845477,0.991168022,4.833975792,-1.274566293,-0.014235647,-0.035835743,-0.083052956,0.033845019,0.143343329,-0.190332562,0.119785309,0.470999986,-0.252849704,0,0,0,1,0
6,7232,a3d9,1675938884,6.090000153,289,45257,17996,33.4151268,35.14561462,70.08805084,200,-0.002274978,0.040287502,-0.125222161,0.991307795,4.836656094,-1.281546116,-0.008699924,0.027016753,-0.041833077,0.002976066,0.083208665,-0.029370826,-0.16058445,0.470999986,-0.251890976,0,0,0,1,0
6,7233,a3d9,1675938884,6.090000153,289,45266,17996,33.41513443,35.14561462,70.09040833,200,-0.004743401,0.041765131,-0.124291353,0.991355062,4.843508244,-1.27616334,0.000836167,-0.106447421,0.058340788,0.03872636,0.08149457,0.068575218,0.029596329,0.470999986,-0.250260574,0,0,0,1,0
6,7234,a3d9,1675938884,6.090000153,289,45266,17996,33.41513824,35.14561462,70.08050537,200,-0.00401319,0.043175001,-0.123965628,0.99133867,4.849925041,-1.270260334,-0.001851223,0.064457402,0.050664026,-0.039282423,0.085131504,0.100365318,0.221189499,0.470999986,-0.2495997,0,0,0,1,0
6,7235,a3d9,1675938884,5.869999886,285,45260,17996,33.41514587,35.14561081,70.08840942,200,-0.002381977,0.044144511,-0.123009801,0.991420269,4.870073795,-1.268109202,0.002619606,-0.041831352,-0.173041672,0.059145033,0.207223818,0.03019705,-0.024238586,0.470999986,-0.247568273,0,0,1,1,0
6,7236,a3d9,1675938884,5.869999886,285,45260,17996,33.41514969,35.14561081,70.08215332,200,-0.003222704,0.029607203,-0.122028872,0.992079616,4.896947861,-1.273676872,0.000967493,-0.061293442,-0.492612422,0.059500627,0.33472833,-0.017549107,0.257506371,0.470999986,-0.245172396,0,0,1,1,0
6,7237,a3d9,1675938884,5.869999886,285,45297,18077,33.4151535,35.14561081,70.09346771,200,-0.01130254,-0.020172728,-0.115895182,0.992992282,4.877875328,-1.255673885,-3.05e-06,-0.227072462,-1.668220997,0.5096277,-0.176197782,0.213538349,-0.804742813,0.470999986,-0.231995033,0,0,1,1,0
6,7238,a3d9,1675938884,5.869999886,285,45297,18077,33.41516113,35.14560699,70.09085846,200,-0.024698831,-0.106443815,-0.073725201,0.991274059,4.829218388,-1.209631801,-0.089035928,0.034594003,-2.330257893,1.289720416,-1.041974425,0.818060994,-0.754468918,0.470999986,-0.144774346,0,0,1,1,0
6,7443,a3d9,1675938905,2.769999981,360,45151,19184,33.41503906,35.1456337,70.15415955,200,-0.011522157,0.053840321,-0.116581134,0.9916538,4.649240494,-1.246080995,-0.034133133,-0.060113631,-0.043530695,-0.04633759,0.335246205,-0.124315709,-0.139118195,0.470999986,-0.235908816,0,0,0,1,0
6,7444,a3d9,1675938905,2.769999981,360,45151,19184,33.41504288,35.1456337,70.13037872,200,-0.015509184,0.053120412,-0.115387954,0.991777837,4.668810844,-1.258121967,-0.038628384,-0.095872551,-0.025260326,0.032386478,0.25579524,-0.087712727,0.029341698,0.470999986,-0.233855428,0,0,0,1,0
6,7445,a3d9,1675938905,2.599999905,358,45153,19184,33.41504669,35.1456337,70.13503265,200,-0.019361634,0.053162374,-0.1137897,0.991892517,4.700527191,-1.253369808,-0.042180434,0.032784414,-0.014301811,0.105418973,0.305211544,0.092027657,0.00117588,0.470999986,-0.231014372,0,0,0,1,0
6,7446,a3d9,1675938905,2.599999905,358,45153,19184,33.41505051,35.14562988,70.11054993,200,-0.019198669,0.052182768,-0.113346696,0.991998434,4.723521233,-1.253410935,-0.047693148,-0.033408247,-0.027414059,0.077468924,0.294656307,0.030772157,-0.084165573,0.470999986,-0.2300306,0,0,0,1,0
6,7447,a3d9,1675938905,2.599999905,358,45107,19288,33.41505814,35.14562988,70.12547302,200,-0.018197736,0.049420126,-0.112517953,0.992253065,4.75052166,-1.258679271,-0.048066221,0.031052595,0.015660413,-0.011977145,0.209683597,0.002436314,-0.072459221,0.470999986,-0.228063803,0,0,0,1,0
6,7448,a3d9,1675938905,2.599999905,358,45107,19288,33.41506195,35.14562988,70.09735107,200,-0.017204905,0.048027188,-0.111803949,0.992419899,4.763726711,-1.265462399,-0.043780856,0.053829066,-0.036697358,-0.043717556,0.184836105,-0.058812957,0.044167519,0.470999986,-0.226436982,0,0,0,1,0
6,7449,a3d9,1675938905,2.599999905,358,45018,19288,33.41506958,35.14562607,70.09832001,200,-0.020545132,0.046419382,-0.109720714,0.99266535,4.782999992,-1.281988621,-0.040571582,-0.118894368,-0.065511107,0.027437372,0.167229384,-0.107820988,0.098926544,0.470999986,-0.222417531,0,0,0,1,0
6,7450,a3d9,1675938905,2.599999905,358,45018,19288,33.41507339,35.14562607,70.06893158,200,-0.023867585,0.045894496,-0.108231664,0.992778897,4.795908928,-1.279906988,-0.034324303,-0.05617753,-0.007318168,0.024471261,0.190407872,0.077198811,0.054508209,0.470999986,-0.219659716,0,0,0,1,0
6,7451,a3d9,1675938905,2.599999905,358,44937,19288,33.41507721,35.14562607,70.07982635,200,-0.025308104,0.044661224,-0.106432423,0.992993951,4.817778111,-1.263167262,-0.018278472,0.042418402,0.030840715,0.042080555,0.190741375,0.175895378,0.200429916,0.470999986,-0.216056339,0,0,0,1,0
6,7452,a3d9,1675938906,2.599999905,358,44937,19288,33.41508484,35.14562225,70.05244446,200,-0.024620041,0.044635732,-0.105314441,0.993131578,4.829951286,-1.252534866,-0.005310303,-0.038763139,-0.00854521,0.147466704,0.15582034,0.101953626,0.113229752,0.470999986,-0.213744172,0,0,0,1,0
6,7453,a3d9,1675938906,2.599999905,358,44886,19288,33.41508865,35.14562225,70.06230927,200,-0.02457978,0.044582337,-0.10427101,0.993245065,4.846326351,-1.240821838,0.006502764,-0.05523726,0.014766039,0.037727572,0.13226673,0.18879813,-0.001363754,0.470999986,-0.2116337,0,0,0,1,0
6,7454,a3d9,1675938906,2.599999905,358,44886,19288,33.41509247,35.14562225,70.03731537,200,-0.02503771,0.04409685,-0.103219062,0.993365169,4.855098724,-1.229227543,0.009404408,0.048880644,-0.025435608,-0.024992578,0.117168933,0.190691501,0.066407204,0.470999986,-0.209514029,0,0,0,1,0
6,7455,a3d9,1675938906,2.359999895,358,44908,19288,33.4151001,35.14562225,70.04446411,200,-0.024659801,0.044265885,-0.101611249,0.993532896,4.857160568,-1.205077529,0.01405701,-0.012347111,0.010723871,0.039078746,-0.021290787,0.220421895,-0.042480469,0.470999986,-0.206256476,0,0,0,1,0
6,7456,a3d9,1675938906,2.359999895,358,44908,19288,33.41510391,35.14561844,70.0226593,200,-0.023059253,0.045551151,-0.100938328,0.993581831,4.859923363,-1.188637853,0.007736605,0.087888539,0.029357471,-0.090081282,0.052238259,0.214947641,-0.006108284,0.470999986,-0.20486298,0,0,0,1,0
6,7457,a3d9,1675938906,2.359999895,358,44952,19316,33.41511154,35.14561844,70.03000641,200,-0.022451889,0.045722507,-0.099267341,0.993756175,4.871917725,-1.170943856,0.001244972,0.0470687,-0.027666757,0.045127977,0.098109715,0.169976994,0.04101181,0.470999986,-0.20145664,0,0,0,1,0
6,7458,a3d9,1675938906,2.359999895,358,44952,19316,33.41511536,35.14561844,70.01302338,200,-0.0236437,0.044534016,-0.098319203,0.993876755,4.880849361,-1.159737945,-6.25e-05,-0.08730235,-0.049023777,0.051774506,0.112057015,0.188469857,-0.049992561,0.470999986,-0.19956068,0,0,0,1,0
6,7459,a3d9,1675938906,2.359999895,358,45019,19316,33.41512299,35.14561462,70.02103424,200,-0.023970405,0.043040343,-0.096901163,0.994073987,4.889377117,-1.130695343,0.001899879,0.033905357,0.017073195,-0.043845028,0.048880041,0.285970569,0.078849792,0.470999986,-0.196622447,0,0,0,1,0
6,7460,a3d9,1675938906,2.359999895,358,45019,19316,33.4151268,35.14561462,70.00621033,200,-0.023086712,0.043056328,-0.09604007,0.994177759,4.894946098,-1.113196373,0.00426605,-0.003801793,0.011223844,0.115270615,0.0587916,0.234734982,0.063334465,0.470999986,-0.194818793,0,0,0,1,0
6,7461,a3d9,1675938906,2.359999895,358,45073,19316,33.41513062,35.14561462,70.01234436,200,-0.022455981,0.043581992,-0.094334126,0.994332671,4.907228947,-1.090140224,0.007686911,0.020209715,0.01224243,0.116984561,0.086442322,0.233196661,-0.005887985,0.470999986,-0.191369631,0,0,0,1,0
6,7462,a3d9,1675938907,2.359999895,358,45073,19316,33.41513824,35.14561462,70.00040436,200,-0.021843761,0.043479748,-0.093208894,0.994456887,4.916652203,-1.074102521,0.006640548,0.012005955,-0.097602159,0.077599704,0.13896814,0.190775335,0.076691628,0.470999986,-0.189047166,0,0,1,1,0
6,7463,a3d9,1675938907,2.359999895,358,45091,19316,33.41514206,35.14561081,70.01126862,200,-0.023218049,0.020328248,-0.090855114,0.995385885,4.935119629,-1.054885626,0.014236538,0.0336022,-0.506058097,0.12714161,0.015424971,0.218276352,0.219537735,0.470999986,-0.182954279,0,0,1,1,0
6,7464,a3d9,1675938907,2.359999895,358,45091,19316,33.41514587,35.14561081,70.00115204,200,-0.02525779,-0.013047274,-0.084083922,0.99605304,4.903436184,-1.030065179,0.015478764,-0.047849517,-1.527244925,0.56025064,-0.278620869,0.281315386,-0.579343796,0.470999986,-0.167706367,0,0,1,1,0
6,7465,a3d9,1675938907,2.180000067,348,45099,19316,33.4151535,35.14561081,70.01165771,200,-0.034014348,-0.13315244,-0.015670873,0.990387738,4.742605686,-0.959098816,-0.053580485,-0.284083724,-1.666626573,1.33823061,-2.555036068,0.376273543,-0.320251465,0.470999986,-0.022798083,0,0,1,1,0
6,7635,a3d9,1675938924,3.380000114,295,44961,18657,33.41505051,35.1456337,70.12152863,200,-0.011972905,0.059977893,-0.105697341,0.992515683,4.639469147,-1.117004156,-0.02307108,-0.022508999,-0.007412226,0.114144906,0.244769365,0.034724139,-0.024442673,0.470999986,-0.214335064,0,0,0,1,0
6,7636,a3d9,1675938924,3.380000114,295,44961,18657,33.41505432,35.1456337,70.1029129,200,-0.010618026,0.059464186,-0.105055235,0.992630184,4.654055595,-1.11563468,-0.019740338,0.005526939,-0.052113414,0.105277173,0.20074892,0.005057561,0.035629272,0.470999986,-0.212850007,0,0,0,1,0
6,7637,a3d9,1675938924,3.380000114,295,44971,18821,33.41506195,35.14562988,70.10235596,200,-0.010959753,0.057747148,-0.104284495,0.992809117,4.676960468,-1.11635375,-0.008583847,0.016776538,0.000679538,-0.048393168,0.181437761,0.030829754,0.033045769,0.470999986,-0.211230375,0,0,0,1,0
6,7638,a3d9,1675938924,3.380000114,295,44971,18821,33.41506577,35.14562988,70.08358765,200,-0.011517155,0.05610903,-0.103003941,0.993030369,4.692287922,-1.114115119,-0.002876254,-0.065598562,-0.02884542,0.018737191,0.208850592,0.015604662,0.258267403,0.470999986,-0.208609664,0,0,0,1,0
6,7639,a3d9,1675938924,3.380000114,295,44924,18821,33.41506958,35.14562988,70.09200287,200,-0.013300106,0.051382441,-0.100781381,0.993491828,4.716547489,-1.103888392,0.013952941,-0.137508407,-0.057034601,0.056455642,0.197026551,0.129016131,0.211905479,0.470999986,-0.204034234,0,0,0,1,0
6,7640,a3d9,1675938924,3.380000114,295,44924,18821,33.41507339,35.14562988,70.07640076,200,-0.015193459,0.051045235,-0.099725209,0.993588686,4.719670773,-1.094413042,0.031795681,-0.118526943,0.01531231,-0.031102963,0.066263728,0.134580523,0.102909088,0.470999986,-0.202069233,0,0,0,1,0
6,7641,a3d9,1675938924,3.380000114,295,44882,18821,33.41508102,35.14562607,70.08364868,200,-0.016081264,0.055649355,-0.099263288,0.993373692,4.725893021,-1.072683573,0.040212572,-0.072494663,0.105252117,0.028613664,0.10105551,0.169195235,-0.021818161,0.470999986,-0.20151914,0,0,0,1,0
6,7642,a3d9,1675938925,3.380000114,295,44882,18821,33.41508484,35.14562607,70.06790161,200,-0.015297093,0.05895517,-0.098976225,0.993224025,4.73786068,-1.063123703,0.035034336,-0.031801853,0.105406053,0.101401672,0.168868616,0.090215325,0.032917023,0.470999986,-0.20107087,0,0,0,1,0
6,7643,a3d9,1675938925,3.380000114,295,44885,18821,33.41509247,35.14562607,70.07615662,200,-0.013622132,0.061149869,-0.098772399,0.993135989,4.762599945,-1.059875846,0.018122504,0.032018572,0.002397183,0.072074652,0.244176477,0.040352166,-0.193671227,0.470999986,-0.200608083,0,0,0,1,0
6,7644,a3d9,1675938925,3.380000114,295,44885,18821,33.41509628,35.14562607,70.06092072,200,-0.01250021,0.060255129,-0.098451279,0.993237317,4.780983925,-1.058728456,0.006617479,0.056929849,-0.024768351,0.021313071,0.236472577,0.005832211,0.023504257,0.470999986,-0.199771918,0,0,0,1,0
6,7645,a3d9,1675938925,4.440000057,300,44876,18821,33.4151001,35.14562225,70.06770325,200,-0.011031677,0.056582168,-0.098030955,0.993512273,4.802028179,-1.061568499,-0.001672652,0.128812313,-0.072594613,0.001784115,0.16753304,-0.023729241,-0.017796516,0.470999986,-0.198542923,0,0,0,1,0
6,7646,a3d9,1675938925,4.440000057,300,44876,18821,33.41510773,35.14562225,70.05233002,200,-0.011883582,0.054312129,-0.097579189,0.993673623,4.80992794,-1.065608978,-0.005713443,0.028834252,-0.065483458,-0.01187169,0.109608516,-0.034004863,-0.008565903,0.470999986,-0.197595915,0,0,0,1,0
6,7647,a3d9,1675938925,4.440000057,300,44862,18969,33.41511154,35.14562225,70.05858612,200,-0.013027376,0.052981764,-0.097093731,0.993778646,4.819040775,-1.057236552,-0.007705324,0.001438852,0.058559798,0.003725881,0.079581812,0.130593643,0.026153564,0.470999986,-0.196659643,0,0,0,1,0
6,7648,a3d9,1675938925,4.440000057,300,44862,18969,33.41511536,35.14562225,70.04388428,200,-0.012271162,0.0520567,-0.096684061,0.993877113,4.824194908,-1.052816033,-0.010860512,-0.067053922,0.001512643,-0.012020034,0.068148375,0.048602022,0.115814209,0.470999986,-0.195705031,0,0,0,1,0
6,7649,a3d9,1675938925,4.440000057,300,44936,18969,33.41512299,35.14561844,70.05657959,200,-0.012499979,0.051542204,-0.096112929,0.993956447,4.829786301,-1.04708004,-0.006814132,-0.056911685,0.021587024,0.048610687,0.065979198,0.079968691,0.040050507,0.470999986,-0.19454778,0,0,0,1,0
6,7650,a3d9,1675938925,4.440000057,300,44936,18969,33.4151268,35.14561844,70.04265594,200,-0.011783079,0.052219868,-0.096302211,0.993911505,4.834990025,-1.038753629,-0.005398405,-0.025885766,-0.034434844,-0.010764113,0.109963775,0.156933367,-0.069862366,0.470999986,-0.194894689,0,0,0,1,0
6,7651,a3d9,1675938925,4.440000057,300,45013,18969,33.41513443,35.14561844,70.05281067,200,-0.011065924,0.051534753,-0.096064933,0.9939785,4.84885025,-1.025658488,-0.002904908,-0.063485183,-0.029279074,0.040126257,0.124756016,0.070482925,0.052659988,0.470999986,-0.194308051,0,0,0,1,0
6,7652,a3d9,1675938926,4.440000057,300,45013,18969,33.41513824,35.14561844,70.03909302,200,-0.011962809,0.050644796,-0.095496163,0.994068623,4.856548309,-1.019168854,0.002242587,0.060080893,-0.007601927,0.064419657,0.09099213,0.099466875,0.032136917,0.470999986,-0.19320278,0,0,1,1,0
6,7653,a3d9,1675938926,4.440000057,300,45057,18969,33.41514206,35.14561462,70.04946899,200,-0.014333451,0.038345776,-0.094426006,0.994689822,4.874929428,-1.009294868,0.004509755,-0.057470165,-0.429803759,0.026687056,0.258727908,0.112177581,0.086145401,0.470999986,-0.190614157,0,0,1,1,0
6,7654,a3d9,1675938926,4.440000057,300,45057,18969,33.41514969,35.14561462,70.03614807,200,-0.017674664,0.018144509,-0.092769884,0.995365322,4.863748074,-0.997094929,0.00698112,-0.125056177,-0.712117136,0.130236715,-0.138515145,0.230633765,-0.093799591,0.470999986,-0.186500547,0,0,1,1,0
6,7655,a3d9,1675938926,4.920000076,300,45069,18969,33.4151535,35.14561462,70.04179382,200,-0.02771841,-0.088848002,-0.045365978,0.99462539,4.814647675,-0.928781748,-0.057217181,0.150492042,-2.251063347,1.315092444,-0.89023602,0.832702041,-0.180393219,0.470999986,-0.08683264,0,0,1,1,0
6,7825,a3d9,1675938943,6.980000019,326,45008,19878,33.41503525,35.14562988,70.09892273,200,-0.017225835,0.063032873,-0.086429574,0.99411267,4.628428459,-0.961256742,-0.014913042,-0.031320039,0.00216861,-0.006835207,0.348264962,0.118990988,-0.113460541,0.470999986,-0.176241176,0,0,0,1,0
6,7826,a3d9,1675938943,6.980000019,326,45008,19878,33.41503906,35.14562988,70.08338165,200,-0.018174902,0.063182481,-0.084954187,0.994213462,4.657173634,-0.951966703,-0.016930096,-0.018226869,-0.003683057,0.047614992,0.386341691,0.156061873,0.096281052,0.470999986,-0.173389677,0,0,0,1,0
6,7827,a3d9,1675938943,6.980000019,326,44964,20092,33.41504669,35.14562988,70.08759308,200,-0.017958935,0.062528096,-0.08368101,0.994366705,4.712748528,-0.925272107,-0.008356502,-0.003565165,-0.071859963,0.008625152,0.50083214,0.262790203,0.075092316,0.470999986,-0.170749266,0,0,0,1,0
6,7828,a3d9,1675938943,6.980000019,326,44964,20092,33.41505051,35.14562988,70.07456207,200,-0.015979186,0.059897553,-0.083194554,0.994603217,4.75304842,-0.910223007,-0.004140802,0.089180782,-0.069809705,-0.103048466,0.491151869,0.228283167,0.065968513,0.470999986,-0.169361378,0,0,0,1,0
6,7829,a3d9,1675938943,6.980000019,326,44914,20092,33.41505432,35.14562607,70.07970428,200,-0.012012135,0.054088864,-0.082483567,0.995051026,4.803639889,-0.894629002,0.001705555,0.154085234,-0.084749714,0.062129267,0.395785928,0.11406415,0.176164627,0.470999986,-0.167158901,0,0,0,1,0
6,7830,a3d9,1675938943,6.980000019,326,44914,20092,33.41505814,35.14562607,70.06512451,200,-0.009681679,0.050690327,-0.082723379,0.995235443,4.828495979,-0.89162904,0.004183806,0.030565327,-0.04083541,0.040873192,0.297081798,0.063211709,-0.022003174,0.470999986,-0.167241201,0,0,0,1,0
6,7831,a3d9,1675938943,6.980000019,326,44907,20092,33.41506577,35.14562607,70.06896973,200,-0.008958339,0.047482725,-0.08278437,0.995395362,4.852173805,-0.893431008,0.003314139,0.05145961,-0.03453967,-0.042918041,0.177189231,0.013818378,0.041293144,0.470999986,-0.167156192,0,0,0,1,0
6,7832,a3d9,1675938944,6.980000019,326,44907,20092,33.41506958,35.14562607,70.05539703,200,-0.008923196,0.045129716,-0.08245302,0.995532632,4.862867832,-0.891782522,0.002741497,-0.037899911,-0.07201577,0.030837908,0.127269208,0.046331972,-0.00948143,0.470999986,-0.166389628,0,0,0,1,0
6,7833,a3d9,1675938944,6.980000019,326,44901,20092,33.41507721,35.14562607,70.06938934,200,-0.009351196,0.044337712,-0.082882576,0.995528579,4.860932827,-0.891753912,0.00843638,-0.026940893,0.073456012,-0.043605909,-0.041702386,0.031178772,0.127508163,0.470999986,-0.167259248,0,0,0,1,0
6,7834,a3d9,1675938944,6.980000019,326,44901,20092,33.41508102,35.14562225,70.05550385,200,-0.011035774,0.046116106,-0.082997851,0.995420933,4.861224174,-0.890540957,0.010295313,-0.036188204,0.003609087,0.064984851,0.003526452,0.037875041,-0.056776047,0.470999986,-0.167715724,0,0,0,1,0
6,7835,a3d9,1675938944,6.789999962,322,44892,20092,33.41508865,35.14562225,70.06610107,200,-0.011427763,0.04986614,-0.083851613,0.995164156,4.866041183,-0.880622804,0.005031939,-0.034749378,0.073903725,0.119178265,0.079923391,0.095588535,-0.130311012,0.470999986,-0.169646169,0,0,0,1,0
6,7836,a3d9,1675938944,6.789999962,322,44892,20092,33.41509247,35.14562225,70.05529785,200,-0.010455626,0.051328972,-0.084396526,0.995054364,4.877047539,-0.87800914,0.001513132,0.049293045,0.004176914,-0.053531297,0.172559887,0.058368109,-0.126756668,0.470999986,-0.170717835,0,0,0,1,0
6,7837,a3d9,1675938944,6.789999962,322,44890,20283,33.4151001,35.14562225,70.06476593,200,-0.008709331,0.049837839,-0.084632218,0.995126963,4.900281429,-0.880263269,-0.009040643,0.038581397,-0.034694918,-0.03825653,0.201499969,-0.031799827,-0.017040253,0.470999986,-0.170953325,0,0,0,1,0
6,7838,a3d9,1675938944,6.789999962,322,44890,20283,33.41510391,35.14562225,70.05522919,200,-0.009858466,0.047692984,-0.083744854,0.995296419,4.911186218,-0.89184165,-0.010225698,-0.016022136,-0.084126174,0.031847831,0.152580589,-0.11613436,0.032539368,0.470999986,-0.16918242,0,0,0,1,0
6,7839,a3d9,1675938944,6.789999962,322,44898,20283,33.41510773,35.14561844,70.06452942,200,-0.0128326,0.044369452,-0.081890017,0.99557054,4.920365334,-0.897804558,-0.008674486,-0.074132353,-0.063983105,0.146983236,0.081771746,-0.045676641,-0.000208855,0.470999986,-0.165562732,0,0,0,1,0
6,7840,a3d9,1675938944,6.789999962,322,44898,20283,33.41511154,35.14561844,70.05576324,200,-0.015435197,0.042875718,-0.080499887,0.995712399,4.922635555,-0.894514322,-0.009036614,-0.046942685,-0.006915416,0.062158957,0.036415331,0.077120811,-0.010996819,0.470999986,-0.162910981,0,0,0,1,0
6,7841,a3d9,1675938944,6.789999962,322,44940,20283,33.41511917,35.14561844,70.06602478,200,-0.017878713,0.042581659,-0.078609347,0.995835185,4.925803661,-0.872727633,-0.007106324,0.061497573,0.011565158,0.015687393,0.038291298,0.214127287,0.075212479,0.470999986,-0.15929348,0,0,0,1,0
6,7842,a3d9,1675938945,6.789999962,322,44940,20283,33.41512299,35.14561844,70.06089783,200,-0.016002318,0.042968757,-0.077733323,0.995919228,4.9278965,-0.852576852,0.000721805,-0.008213518,0.041040376,0.034012437,0.0228088,0.241201609,0.028531075,0.470999986,-0.157398675,0,0,0,1,0
6,7843,a3d9,1675938945,6.789999962,322,44938,20283,33.41513062,35.14561844,70.0754776,200,-0.01317894,0.045008026,-0.077308409,0.995903611,4.91893959,-0.837252617,0.011119341,0.058504678,0.0859925,-0.099381886,-0.059826918,0.119600654,0.049982071,0.470999986,-0.156405617,0,0,0,1,0
6,7844,a3d9,1675938945,6.789999962,322,44938,20283,33.41513443,35.14561462,70.07124329,200,-0.012744948,0.044471696,-0.076803565,0.995972395,4.919775486,-0.83108902,0.011650456,0.014800979,-0.177218333,0.098522693,0.085161366,0.070689932,0.009810448,0.470999986,-0.15532744,0,0,1,1,0
6,7845,a3d9,1675938945,6.71999979,319,44937,20283,33.41514206,35.14561462,70.08325195,200,-0.015067637,0.018834257,-0.076548286,0.996774077,4.921931744,-0.825125515,0.010354528,-0.11054793,-0.700438082,0.197253495,-0.121712565,0.096537739,0.330350876,0.470999986,-0.153871942,0,0,1,1,0
6,7846,a3d9,1675938945,6.71999979,319,44937,20283,33.41514587,35.14561462,70.07732391,200,-0.022045389,-0.041691758,-0.055062711,0.997368515,4.903263569,-0.809973598,-0.022555171,0.117607728,-2.258722782,1.048545957,-0.271289885,0.33693105,-0.74639225,0.470999986,-0.108608581,0,0,1,1,0
6,8010,a3d9,1675938961,10.98999977,103,44770,19906,33.41504288,35.14563751,70.15138245,200,-0.009615669,0.060434829,-0.108189605,0.992245018,4.613914967,-1.128797531,-0.037762783,0.039439917,0.02852916,-0.023323469,0.404931575,0.053692229,0.129554749,0.470999986,-0.219127736,0,0,0,1,0
6,8011,a3d9,1675938961,10.98999977,103,44771,19906,33.41505051,35.14563751,70.15265656,200,-0.008620384,0.0580213,-0.107962482,0.992422938,4.65934515,-1.130324364,-0.03378268,0.025964456,-0.019994641,0.02066339,0.378173262,-0.025238182,0.097045898,0.470999986,-0.218417034,0,0,0,1,0
6,8012,a3d9,1675938962,10.98999977,103,44771,19906,33.41505432,35.14563751,70.13135529,200,-0.009670594,0.055878486,-0.107591331,0.99257654,4.684101105,-1.135283232,-0.032060701,-0.085800909,-0.095699325,0.057204869,0.334735602,-0.01677262,0.00696373,0.470999986,-0.217663723,0,0,0,1,0
6,8013,a3d9,1675938962,10.98999977,103,44792,19906,33.41505814,35.1456337,70.13007355,200,-0.011764309,0.053602893,-0.107136942,0.992728591,4.714808464,-1.141451836,-0.029639084,-0.075020775,-0.011766452,-0.019000968,0.260858059,-0.017957672,0.00662899,0.470999986,-0.216836757,0,0,0,1,0
6,8014,a3d9,1675938962,10.98999977,103,44792,19906,33.41506577,35.1456337,70.10713196,200,-0.012993647,0.052131053,-0.106494173,0.992860794,4.735245705,-1.142543435,-0.02860488,0.004546104,-0.042924345,-0.056617651,0.236256376,0.030410087,0.19102478,0.470999986,-0.215576844,0,0,0,1,0
6,8015,a3d9,1675938962,1.929999948,143,44803,19906,33.41506958,35.1456337,70.10795593,200,-0.014198042,0.051478524,-0.105524912,0.992981791,4.760932446,-1.13881886,-0.026484944,-0.017501416,-0.043456752,0.035150066,0.206493884,0.055469409,-0.007017136,0.470999986,-0.213700116,0,0,0,1,0
6,8016,a3d9,1675938962,1.929999948,143,44803,19906,33.41507339,35.1456337,70.08600616,200,-0.015738208,0.051261961,-0.105107069,0.993014097,4.77737999,-1.135957479,-0.029420858,-0.017960148,0.018692808,-0.012780553,0.200483412,0.076564908,0.094197273,0.470999986,-0.212993908,0,0,0,1,0
6,8017,a3d9,1675938962,1.929999948,143,44818,20048,33.41508102,35.14562988,70.08979034,200,-0.016118975,0.051110055,-0.104651123,0.993063986,4.795967579,-1.123529315,-0.033413697,0.024390711,-0.019745011,-0.031796914,0.174115807,0.123221993,-0.055130005,0.470999986,-0.212101106,0,0,0,1,0
6,8018,a3d9,1675938962,1.929999948,143,44818,20048,33.41508484,35.14562988,70.06684875,200,-0.01491535,0.049480785,-0.104411736,0.993190527,4.808896065,-1.122961998,-0.032718413,0.048273221,-0.075069986,0.022731833,0.164399162,0.040139578,0.028183937,0.470999986,-0.211401098,0,0,0,1,0
6,8019,a3d9,1675938962,1.929999948,143,44802,20048,33.41509247,35.14562988,70.06542206,200,-0.01381838,0.047772702,-0.103975773,0.993335724,4.818990707,-1.120999455,-0.028859146,0.006372616,-0.018277233,0.08295574,0.084729478,0.017537402,0.031862259,0.470999986,-0.210319183,0,0,0,1,0
6,8020,a3d9,1675938962,1.929999948,143,44802,20048,33.41509628,35.14562988,70.0476532,200,-0.013579932,0.04723784,-0.103161745,0.99344945,4.825078011,-1.120864272,-0.027342312,-0.064531863,-0.038537048,-0.029672209,0.081082746,0.003511994,-0.016735077,0.470999986,-0.208625413,0,0,0,1,0
6,8021,a3d9,1675938962,1.929999948,143,44765,20048,33.4151001,35.14562607,70.04998016,200,-0.015537067,0.045634374,-0.101416096,0.993675411,4.832881451,-1.121178389,-0.019451372,-0.025596811,0.00232057,-0.096443333,0.046603557,0.045804877,0.072776794,0.470999986,-0.205186352,0,0,0,1,0
6,8022,a3d9,1675938963,1.929999948,143,44765,20048,33.41510391,35.14562607,70.03394318,200,-0.017499726,0.045928124,-0.100118995,0.993760824,4.835042,-1.114827156,-0.009489095,-0.029401097,0.010299785,0.107269622,0.038741961,0.091680765,0.20672226,0.470999986,-0.202759879,0,0,0,1,0
6,8023,a3d9,1675938963,1.929999948,143,44761,20048,33.41511154,35.14562607,70.04186249,200,-0.019022536,0.046809517,-0.09918341,0.993785501,4.842284679,-1.098375559,0.009318743,-0.052729085,0.002136875,0.093742087,0.074163772,0.185291842,0.09442997,0.470999986,-0.201064183,0,0,0,1,0
6,8024,a3d9,1675938963,1.929999948,143,44761,20048,33.41511536,35.14562607,70.03262329,200,-0.018156482,0.047186658,-0.098464765,0.993855357,4.847760201,-1.082377315,0.017213751,0.066056006,0.031303234,-0.02101209,0.0897917,0.24229151,0.149875641,0.470999986,-0.199563358,0,0,0,1,0
6,8025,a3d9,1675938963,3.0,129,44785,20048,33.41512299,35.14562225,70.04107666,200,-0.016607013,0.048026215,-0.097512342,0.993936121,4.856341839,-1.059527755,0.028949764,0.072568893,0.031138858,0.041606624,0.069373101,0.213369131,0.090826988,0.470999986,-0.197556366,0,0,0,1,0
6,8026,a3d9,1675938963,3.0,129,44785,20048,33.4151268,35.14562225,70.03642273,200,-0.014200317,0.049205575,-0.09699744,0.993966103,4.861998558,-1.04679966,0.031424657,0.031666189,0.062779352,-0.064174682,0.089002356,0.14966619,0.051870346,0.470999986,-0.196364892,0,0,0,1,0
6,8027,a3d9,1675938963,3.0,129,44828,20119,33.41513443,35.14562225,70.0479126,200,-0.014143348,0.050245896,-0.096053511,0.994006574,4.877187252,-1.043564796,0.026449965,0.009273045,0.028700279,0.039278064,0.14935562,0.018030288,-0.047472,0.470999986,-0.194515989,0,0,0,1,0
6,8028,a3d9,1675938963,3.0,129,44828,20119,33.41513824,35.14561844,70.04541016,200,-0.015519921,0.04926271,-0.095281467,0.994109511,4.890537262,-1.037977338,0.018487621,-0.063546471,-0.064604945,0.055606335,0.175737649,0.129234582,-0.058336258,0.470999986,-0.193033499,0,0,1,1,0
6,8029,a3d9,1675938963,3.0,129,44869,20119,33.41514587,35.14561844,70.0558548,200,-0.014913101,0.040832605,-0.09388712,0.994633377,4.913788795,-1.022826314,0.023430016,-0.012943478,-0.425701648,0.08951398,0.300468743,0.115292013,0.241904259,0.470999986,-0.189700942,0,0,1,1,0
6,8030,a3d9,1675938963,3.0,129,44869,20119,33.41514969,35.14561844,70.05683899,200,-0.015902925,0.019840375,-0.093205735,0.995322108,4.919336796,-1.019052267,0.030620657,-0.003457436,-0.652076781,0.002636938,-0.017031491,0.093150988,0.482522964,0.470999986,-0.187389613,0,0,1,1,0
6,8031,a3d9,1675938963,3.0,129,44871,20119,33.4151535,35.14561844,70.06732941,200,-0.026128544,-0.087260053,-0.047399022,0.9947142,4.871665478,-0.977208316,-0.029127009,0.037734568,-2.336784601,1.339911938,-0.929392219,0.630649984,-0.379759789,0.470999986,-0.09128797,0,0,1,1,0
6,8202,a3d9,1675938981,5.389999866,328,44877,19313,33.41503906,35.14564133,70.14614105,200,-0.014590725,0.058817133,-0.106022082,0.992515504,4.612118721,-1.157102227,-0.043218493,-0.063579112,-0.019273069,0.022561714,0.369152427,-0.007296825,0.015712738,0.470999986,-0.215214928,0,0,0,1,0
6,8203,a3d9,1675938981,5.389999866,328,44893,19313,33.41504669,35.14564133,70.14169312,200,-0.015906779,0.056655258,-0.104618214,0.992769957,4.652420998,-1.154085875,-0.04374012,-0.022904934,-0.0186287,0.058331031,0.33391124,0.063112199,0.021509171,0.470999986,-0.212378679,0,0,0,1,0
6,8204,a3d9,1675938981,5.389999866,328,44893,19313,33.41505051,35.14564133,70.11906433,200,-0.018896649,0.054318037,-0.103321433,0.992983937,4.677580833,-1.152083516,-0.044051394,-0.109501779,-0.096336834,0.11187017,0.309553623,0.11189948,-0.034989357,0.470999986,-0.209913385,0,0,0,1,0
